SubNo,Name,Gender,Age,Handedness,face,true_leftBar,true_rightBar,leftBarLength,rightBarLength,error,acc,rt,source,session_square_side_px,session_square_side_px_ls,fit_rmse_px,fit_max_abs_error_px,n_faces,n_trials,true_ability,true_warmth,ability_0_10,warmth_0_10,recorded_true_ability_0_10,recorded_true_warmth_0_10,ability_bias,warmth_bias,euclidean_bias,true_mapping_ability_error,true_mapping_warmth_error
2,lhy,Male,18,Right,1,90,179,86.60185294113757,167.36747446657142,12.118706767618532,1,14.71091801412058,CTtask-2-2026-03-29.mat,374,373.7971867357064,0.0,0.0,6,24,2.416,4.788,2.3155575652710576,4.475066162207792,2.406417112299465,4.786096256684492,-0.10044243472894232,-0.3129338377922082,0.3286582868720001,-0.009582887700534837,-0.001903743315508244
2,lhy,Male,18,Right,1,90,179,86.31923997916374,179.2805219350694,3.6914342587999083,1,18.491643254440532,CTtask-2-2026-03-29.mat,374,373.7971867357064,0.0,0.0,6,24,2.416,4.788,2.3080010689615973,4.793596843183674,2.406417112299465,4.786096256684492,-0.10799893103840263,0.005596843183673705,0.10814385677910827,-0.009582887700534837,-0.001903743315508244
2,lhy,Male,18,Right,1,90,179,86.9577199374912,165.8415658052086,13.505549172003116,1,10.88669284567004,CTtask-2-2026-03-29.mat,374,373.7971867357064,0.0,0.0,6,24,2.416,4.788,2.3250727256013692,4.434266465379909,2.406417112299465,4.786096256684492,-0.09092727439863069,-0.3537335346200914,0.36523305264500266,-0.009582887700534837,-0.001903743315508244
2,lhy,Male,18,Right,1,90,179,85.0756806555703,169.3620410292474,10.82308524071742,1,29.735810619360564,CTtask-2-2026-03-29.mat,374,373.7971867357064,0.0,0.0,6,24,2.416,4.788,2.274750819667655,4.528396818963834,2.406417112299465,4.786096256684492,-0.1412491803323448,-0.25960318103616586,0.2955421163703332,-0.009582887700534837,-0.001903743315508244
2,lhy,Male,18,Right,2,104,290,101.56001578501497,284.3693239439203,6.136614361183666,1,17.071819036900706,CTtask-2-2026-03-29.mat,374,373.7971867357064,0.0,0.0,6,24,2.789,7.765,2.7155084434495977,7.603457859463108,2.7807486631016043,7.754010695187166,-0.0734915565504024,-0.1615421405368913,0.17747358128307925,-0.008251336898395856,-0.010989304812834
2,lhy,Male,18,Right,2,104,290,100.92916405738356,292.32879692327936,3.854001621216628,1,14.659588254440678,CTtask-2-2026-03-29.mat,374,373.7971867357064,0.0,0.0,6,24,2.789,7.765,2.6986407501974212,7.816277992601053,2.7807486631016043,7.754010695187166,-0.09035924980257892,0.05127799260105359,0.10389526721693615,-0.008251336898395856,-0.010989304812834
2,lhy,Male,18,Right,2,104,290,103.65434816520289,273.1060736153266,16.897462054452536,1,16.03502812813076,CTtask-2-2026-03-29.mat,374,373.7971867357064,0.0,0.0,6,24,2.789,7.765,2.7715066354332323,7.302301433564882,2.7807486631016043,7.754010695187166,-0.017493364566767866,-0.462698566435118,0.4630291364320167,-0.008251336898395856,-0.010989304812834
2,lhy,Male,18,Right,2,104,290,106.14333809974843,287.6987293551113,3.144796462548829,1,14.83349313690087,CTtask-2-2026-03-29.mat,374,373.7971867357064,0.0,0.0,6,24,2.789,7.765,2.8380571684424716,7.692479394521693,2.7807486631016043,7.754010695187166,0.04905716844247143,-0.07252060547830652,0.08755480566212911,-0.008251336898395856,-0.010989304812834
2,lhy,Male,18,Right,3,240,319,241.82090998211174,311.09046429372347,8.116431990216979,1,16.640012663210655,CTtask-2-2026-03-29.mat,374,373.7971867357064,0.0,0.0,6,24,6.426,8.527,6.465799732142026,8.317926852773356,6.4171122994652405,8.529411764705882,0.03979973214202559,-0.20907314722664339,0.21282762877462758,-0.008887700534759624,0.0024117647058830016
2,lhy,Male,18,Right,3,240,319,242.24978336205564,312.24978336205567,7.115261754521956,1,13.730276736901033,CTtask-2-2026-03-29.mat,374,373.7971867357064,0.0,0.0,6,24,6.426,8.527,6.477266934814322,8.348924688825019,6.4171122994652405,8.529411764705882,0.051266934814321985,-0.17807531117498065,0.185308162408789,-0.008887700534759624,0.0024117647058830016
2,lhy,Male,18,Right,3,240,319,241.86407820996752,313.4291922913942,5.8744094255624955,1,10.380866054440048,CTtask-2-2026-03-29.mat,374,373.7971867357064,0.0,0.0,6,24,6.426,8.527,6.466953962833356,8.380459686935675,6.4171122994652405,8.529411764705882,0.04095396283335617,-0.14654031306432458,0.15215548108676918,-0.008887700534759624,0.0024117647058830016
2,lhy,Male,18,Right,3,240,319,239.3839157913523,311.0881018438508,7.9358485485436585,1,11.56586654567036,CTtask-2-2026-03-29.mat,374,373.7971867357064,0.0,0.0,6,24,6.426,8.527,6.400639459661827,8.31786368566446,6.4171122994652405,8.529411764705882,-0.025360540338173365,-0.2091363143355398,0.21066835305782838,-0.008887700534759624,0.0024117647058830016
2,lhy,Male,18,Right,4,330,251,309.76402308380636,247.9644543448775,20.462387426130284,0,16.845611754440142,CTtask-2-2026-03-29.mat,374,373.7971867357064,0.0,0.0,6,24,8.817,6.716,8.2824605102622,6.630065624194586,8.823529411764707,6.711229946524064,-0.5345394897377993,-0.0859343758054143,0.541402976565712,0.006529411764706339,-0.004770053475936287
2,lhy,Male,18,Right,4,330,251,315.73741944285257,247.87575137829265,14.600757980302262,1,17.632067228130836,CTtask-2-2026-03-29.mat,374,373.7971867357064,0.0,0.0,6,24,8.817,6.716,8.442176990450603,6.627693887120124,8.823529411764707,6.711229946524064,-0.37482300954939696,-0.08830611287987633,0.3850847414006699,0.006529411764706339,-0.004770053475936287
2,lhy,Male,18,Right,4,330,251,317.3135869338449,240.31565714384578,16.586146591446887,1,15.549554545670617,CTtask-2-2026-03-29.mat,374,373.7971867357064,0.0,0.0,6,24,8.817,6.716,8.484320506252537,6.425552330049352,8.823529411764707,6.711229946524064,-0.3326794937474631,-0.2904476699506482,0.44162823113998156,0.006529411764706339,-0.004770053475936287
2,lhy,Male,18,Right,4,330,251,321.6191503376275,242.20479975537773,12.148834857972709,1,18.680777036901418,CTtask-2-2026-03-29.mat,374,373.7971867357064,0.0,0.0,6,24,8.817,6.716,8.599442522396458,6.476064164582293,8.823529411764707,6.711229946524064,-0.21755747760354183,-0.23993583541770747,0.32388340676670796,0.006529411764706339,-0.004770053475936287
2,lhy,Male,18,Right,5,183,76,173.9563154341035,84.74421074070398,12.579723844555476,1,17.24282892813062,CTtask-2-2026-03-29.mat,374,373.7971867357064,0.0,0.0,6,24,4.894,2.02,4.6512383805910025,2.2658879877193576,4.8930481283422465,2.0320855614973263,-0.24276161940899765,0.2458879877193576,0.34553452267863766,-0.0009518716577536779,0.012085561497326314
2,lhy,Male,18,Right,5,183,76,176.97219518849835,78.14995835919687,6.399746228706494,1,20.24916754567039,CTtask-2-2026-03-29.mat,374,373.7971867357064,0.0,0.0,6,24,4.894,2.02,4.731876876697817,2.089571079122911,4.8930481283422465,2.0320855614973263,-0.16212312330218293,0.06957107912291116,0.1764200730063934,-0.0009518716577536779,0.012085561497326314
2,lhy,Male,18,Right,5,183,76,172.9948569080827,71.79495195317017,10.852894423419388,1,22.003374636900844,CTtask-2-2026-03-29.mat,374,373.7971867357064,0.0,0.0,6,24,4.894,2.02,4.625530933371195,1.919651121742518,4.8930481283422465,2.0320855614973263,-0.2684690666288052,-0.10034887825748195,0.2866104274168628,-0.0009518716577536779,0.012085561497326314
2,lhy,Male,18,Right,5,183,76,172.47307642090053,86.6838064916598,14.998661313311679,1,11.083745328130135,CTtask-2-2026-03-29.mat,374,373.7971867357064,0.0,0.0,6,24,4.894,2.02,4.611579583446538,2.3177488366753956,4.8930481283422465,2.0320855614973263,-0.28242041655346206,0.29774883667539553,0.4103847724121625,-0.0009518716577536779,0.012085561497326314
2,lhy,Male,18,Right,6,286,119,283.67358990905996,120.71608529944027,2.89087057236789,1,28.66156338428118,CTtask-2-2026-03-29.mat,374,373.7971867357064,0.0,0.0,6,24,7.659,3.185,7.584855345162031,3.227702815493055,7.647058823529411,3.1818181818181817,-0.07414465483796917,0.0427028154930551,0.08556261036267823,-0.011941176470588566,-0.0031818181818183966
2,lhy,Male,18,Right,6,286,119,285.15611675868473,123.05172037695527,4.138668498201728,1,20.302442719360442,CTtask-2-2026-03-29.mat,374,373.7971867357064,0.0,0.0,6,24,7.659,3.185,7.624495100499592,3.2901529512554886,7.647058823529411,3.1818181818181817,-0.03450489950040758,0.10515295125548851,0.11066946845120551,-0.011941176470588566,-0.0031818181818183966
2,lhy,Male,18,Right,6,286,119,292.0,117.3486742963367,6.223092204007514,1,20.246506545669945,CTtask-2-2026-03-29.mat,374,373.7971867357064,0.0,0.0,6,24,7.659,3.185,7.807486631016043,3.1376650881373447,7.647058823529411,3.1818181818181817,0.1484866310160431,-0.04733491186265537,0.15584888023832535,-0.011941176470588566,-0.0031818181818183966
2,lhy,Male,18,Right,6,286,119,281.6812408671318,127.6812408671318,9.696165398800282,1,22.0842484456698,CTtask-2-2026-03-29.mat,374,373.7971867357064,0.0,0.0,6,24,7.659,3.185,7.531583980404593,3.4139369215810644,7.647058823529411,3.1818181818181817,-0.12741601959540638,0.22893692158106438,0.26200564137543186,-0.011941176470588566,-0.0031818181818183966
6,yhc,Female,18,Right,1,53,104,66.0,104.0,13.0,0,10.632328662482905,CTtask-6-2026-03-29.mat,218,217.8493124620833,0.0,0.0,6,24,2.416,4.788,3.0275229357798166,4.770642201834862,2.431192660550459,4.770642201834862,0.6115229357798166,-0.01735779816513805,0.6117692327519483,0.015192660550459092,-0.01735779816513805
6,yhc,Female,18,Right,1,53,104,72.0,108.0,19.4164878389476,0,14.128158083737617,CTtask-6-2026-03-29.mat,218,217.8493124620833,0.0,0.0,6,24,2.416,4.788,3.302752293577982,4.954128440366973,2.431192660550459,4.770642201834862,0.8867522935779819,0.16612844036697272,0.902179743102545,0.015192660550459092,-0.01735779816513805
6,yhc,Female,18,Right,1,53,104,68.0,109.0,15.811388300841896,0,11.016210815875638,CTtask-6-2026-03-29.mat,218,217.8493124620833,0.0,0.0,6,24,2.416,4.788,3.1192660550458715,5.0,2.431192660550459,4.770642201834862,0.7032660550458716,0.21199999999999974,0.7345251147372585,0.015192660550459092,-0.01735779816513805
6,yhc,Female,18,Right,1,53,104,69.99177720852742,109.31401573745767,17.80334957141997,0,17.603810869268273,CTtask-6-2026-03-29.mat,218,217.8493124620833,0.0,0.0,6,24,2.416,4.788,3.210631982042542,5.014404391626498,2.431192660550459,4.770642201834862,0.7946319820425423,0.22640439162649795,0.8262559745215909,0.015192660550459092,-0.01735779816513805
6,yhc,Female,18,Right,2,61,169,48.0,157.0,17.69180601295413,0,18.976700116772008,CTtask-6-2026-03-29.mat,218,217.8493124620833,0.0,0.0,6,24,2.789,7.765,2.2018348623853212,7.201834862385321,2.7981651376146788,7.752293577981652,-0.5871651376146789,-0.5631651376146785,0.8135833522477119,0.009165137614678631,-0.01270642201834793
6,yhc,Female,18,Right,2,61,169,52.0,160.0,12.727922061357855,0,21.509197515875712,CTtask-6-2026-03-29.mat,218,217.8493124620833,0.0,0.0,6,24,2.789,7.765,2.385321100917431,7.339449541284404,2.7981651376146788,7.752293577981652,-0.40367889908256904,-0.4255504587155956,0.5865576241747854,0.009165137614678631,-0.01270642201834793
6,yhc,Female,18,Right,2,61,169,52.0,161.0,12.041594578792296,0,15.920967795516844,CTtask-6-2026-03-29.mat,218,217.8493124620833,0.0,0.0,6,24,2.789,7.765,2.385321100917431,7.385321100917431,2.7981651376146788,7.752293577981652,-0.40367889908256904,-0.3796788990825686,0.5541775166614632,0.009165137614678631,-0.01270642201834793
6,yhc,Female,18,Right,2,61,169,51.0,161.0,12.806248474865697,0,15.552018362482158,CTtask-6-2026-03-29.mat,218,217.8493124620833,0.0,0.0,6,24,2.789,7.765,2.3394495412844036,7.385321100917431,2.7981651376146788,7.752293577981652,-0.4495504587155965,-0.3796788990825686,0.5884315434610509,0.009165137614678631,-0.01270642201834793
6,yhc,Female,18,Right,3,140,186,132.0,186.0,8.0,1,16.15145341587504,CTtask-6-2026-03-29.mat,218,217.8493124620833,0.0,0.0,6,24,6.426,8.527,6.055045871559633,8.53211009174312,6.422018348623854,8.53211009174312,-0.370954128440367,0.005110091743119938,0.3709893238956822,-0.003981651376146367,0.005110091743119938
6,yhc,Female,18,Right,3,140,186,134.0,185.0,6.082762530298219,1,19.406027122661726,CTtask-6-2026-03-29.mat,218,217.8493124620833,0.0,0.0,6,24,6.426,8.527,6.146788990825688,8.486238532110091,6.422018348623854,8.53211009174312,-0.2792110091743121,-0.040761467889907976,0.2821706662796078,-0.003981651376146367,0.005110091743119938
6,yhc,Female,18,Right,3,140,186,132.0,191.0,9.433981132056603,1,14.583200015875263,CTtask-6-2026-03-29.mat,218,217.8493124620833,0.0,0.0,6,24,6.426,8.527,6.055045871559633,8.761467889908257,6.422018348623854,8.53211009174312,-0.370954128440367,0.23446788990825773,0.4388418357506303,-0.003981651376146367,0.005110091743119938
6,yhc,Female,18,Right,3,140,186,135.0,188.0,5.385164807134504,1,15.2865534226612,CTtask-6-2026-03-29.mat,218,217.8493124620833,0.0,0.0,6,24,6.426,8.527,6.192660550458715,8.623853211009175,6.422018348623854,8.53211009174312,-0.23333944954128505,0.09685321100917577,0.2526417289265925,-0.003981651376146367,0.005110091743119938
6,yhc,Female,18,Right,4,192,146,193.0,139.0,7.0710678118654755,1,12.269614715875832,CTtask-6-2026-03-29.mat,218,217.8493124620833,0.0,0.0,6,24,8.817,6.716,8.853211009174313,6.376146788990825,8.807339449541285,6.697247706422019,0.036211009174312636,-0.3398532110091752,0.3417768895327318,-0.009660550458715278,-0.018752293577981582
6,yhc,Female,18,Right,4,192,146,196.0,134.0,12.649110640673518,0,14.4247299692679,CTtask-6-2026-03-29.mat,218,217.8493124620833,0.0,0.0,6,24,8.817,6.716,8.990825688073395,6.146788990825688,8.807339449541285,6.697247706422019,0.1738256880733946,-0.5692110091743121,0.5951609385699199,-0.009660550458715278,-0.018752293577981582
6,yhc,Female,18,Right,4,192,146,198.0,136.0,11.661903789690601,0,11.785203562481911,CTtask-6-2026-03-29.mat,218,217.8493124620833,0.0,0.0,6,24,8.817,6.716,9.082568807339449,6.238532110091743,8.807339449541285,6.697247706422019,0.26556880733944865,-0.47746788990825717,0.546353710818496,-0.009660550458715278,-0.018752293577981582
6,yhc,Female,18,Right,4,192,146,192.0,130.0,16.0,0,12.184323669267542,CTtask-6-2026-03-29.mat,218,217.8493124620833,0.0,0.0,6,24,8.817,6.716,8.807339449541285,5.963302752293577,8.807339449541285,6.697247706422019,-0.009660550458715278,-0.7526972477064229,0.7527592396908785,-0.009660550458715278,-0.018752293577981582
6,yhc,Female,18,Right,5,107,44,106.0,52.00000000000001,8.062257748298556,1,8.314960689626787,CTtask-6-2026-03-29.mat,218,217.8493124620833,0.0,0.0,6,24,4.894,2.02,4.862385321100918,2.3853211009174315,4.908256880733945,2.0183486238532113,-0.031614678899082094,0.36532110091743153,0.3666865073839181,0.014256880733944932,-0.0016513761467886745
6,yhc,Female,18,Right,5,107,44,108.0,58.00000000000001,14.035668847618206,0,11.629887169267931,CTtask-6-2026-03-29.mat,218,217.8493124620833,0.0,0.0,6,24,4.894,2.02,4.954128440366973,2.6605504587155964,4.908256880733945,2.0183486238532113,0.060128440366972846,0.6405504587155963,0.6433663959997643,0.014256880733944932,-0.0016513761467886745
6,yhc,Female,18,Right,5,107,44,108.0,50.00000000000001,6.0827625302982264,1,9.648452435336367,CTtask-6-2026-03-29.mat,218,217.8493124620833,0.0,0.0,6,24,4.894,2.02,4.954128440366973,2.2935779816513766,4.908256880733945,2.0183486238532113,0.060128440366972846,0.2735779816513766,0.2801077317487069,0.014256880733944932,-0.0016513761467886745
6,yhc,Female,18,Right,5,107,44,111.40745398717533,45.93695859871037,4.814297379907659,1,9.059192470164817,CTtask-6-2026-03-29.mat,218,217.8493124620833,0.0,0.0,6,24,4.894,2.02,5.110433669136483,2.1071999357206592,4.908256880733945,2.0183486238532113,0.21643366913648254,0.0871999357206592,0.23333958499484714,0.014256880733944932,-0.0016513761467886745
6,yhc,Female,18,Right,6,167,69,163.0,64.00000000000001,6.403124237432838,1,12.739802499999314,CTtask-6-2026-03-29.mat,218,217.8493124620833,0.0,0.0,6,24,7.659,3.185,7.477064220183486,2.935779816513762,7.660550458715596,3.165137614678899,-0.18193577981651377,-0.24922018348623798,0.3085633287258178,0.0015504587155961147,-0.019862385321101073
6,yhc,Female,18,Right,6,167,69,166.0,75.00000000000001,6.0827625302982335,1,21.82602442266125,CTtask-6-2026-03-29.mat,218,217.8493124620833,0.0,0.0,6,24,7.659,3.185,7.614678899082569,3.4403669724770647,7.660550458715596,3.165137614678899,-0.04432110091743091,0.25536697247706464,0.25918458792651033,0.0015504587155961147,-0.019862385321101073
6,yhc,Female,18,Right,6,167,69,156.0,73.00000000000001,11.70469991071963,0,17.6547449158752,CTtask-6-2026-03-29.mat,218,217.8493124620833,0.0,0.0,6,24,7.659,3.185,7.155963302752294,3.3486238532110097,7.660550458715596,3.165137614678899,-0.5030366972477056,0.1636238532110097,0.5289789070629356,0.0015504587155961147,-0.019862385321101073
6,yhc,Female,18,Right,6,167,69,160.0,72.00000000000001,7.615773105863914,1,13.92980576926766,CTtask-6-2026-03-29.mat,218,217.8493124620833,0.0,0.0,6,24,7.659,3.185,7.339449541284404,3.3027522935779823,7.660550458715596,3.165137614678899,-0.31955045871559573,0.11775229357798223,0.3405555730100786,0.0015504587155961147,-0.019862385321101073
8,xcd,Male,19,Right,1,90,179,76.0,182.0,14.317821063276353,1,10.070920945606304,CTtask-8-2026-03-29.mat,374,373.7971867357064,0.0,0.0,6,24,2.416,4.788,2.0320855614973263,4.866310160427807,2.406417112299465,4.786096256684492,-0.3839144385026736,0.07831016042780714,0.39181982762113005,-0.009582887700534837,-0.001903743315508244
8,xcd,Male,19,Right,1,90,179,80.0,186.0,12.206555615733702,1,23.93364503652083,CTtask-8-2026-03-29.mat,374,373.7971867357064,0.0,0.0,6,24,2.416,4.788,2.1390374331550803,4.973262032085561,2.406417112299465,4.786096256684492,-0.2769625668449196,0.1852620320855607,0.3332120705583726,-0.009582887700534837,-0.001903743315508244
8,xcd,Male,19,Right,1,90,179,88.0,184.0,5.385164807134504,1,15.304848136521287,CTtask-8-2026-03-29.mat,374,373.7971867357064,0.0,0.0,6,24,2.416,4.788,2.3529411764705883,4.919786096256685,2.406417112299465,4.786096256684492,-0.06305882352941161,0.13178609625668436,0.14609582605772675,-0.009582887700534837,-0.001903743315508244
8,xcd,Male,19,Right,1,90,179,76.0,178.0,14.035668847618199,1,12.519780636522228,CTtask-8-2026-03-29.mat,374,373.7971867357064,0.0,0.0,6,24,2.416,4.788,2.0320855614973263,4.759358288770054,2.406417112299465,4.786096256684492,-0.3839144385026736,-0.02864171122994641,0.38498135501995784,-0.009582887700534837,-0.001903743315508244
8,xcd,Male,19,Right,2,104,290,110.0,292.0,6.324555320336759,1,19.582089600179643,CTtask-8-2026-03-29.mat,374,373.7971867357064,0.0,0.0,6,24,2.789,7.765,2.9411764705882355,7.807486631016043,2.7807486631016043,7.754010695187166,0.15217647058823536,0.04248663101604322,0.15799617721889814,-0.008251336898395856,-0.010989304812834
8,xcd,Male,19,Right,2,104,290,116.0,288.0,12.165525060596439,1,22.23958974560628,CTtask-8-2026-03-29.mat,374,373.7971867357064,0.0,0.0,6,24,2.789,7.765,3.1016042780748663,7.7005347593582885,2.7807486631016043,7.754010695187166,0.3126042780748661,-0.06446524064171122,0.3191820827078205,-0.008251336898395856,-0.010989304812834
8,xcd,Male,19,Right,2,104,290,298.0,118.00000000000001,259.268200904006,0,16.12182864560691,CTtask-8-2026-03-29.mat,374,373.7971867357064,0.0,0.0,6,24,2.789,7.765,7.967914438502674,3.1550802139037435,2.7807486631016043,7.754010695187166,5.178914438502673,-4.609919786096256,6.933434588684976,-0.008251336898395856,-0.010989304812834
8,xcd,Male,19,Right,2,104,290,114.10467191248588,291.99725906950914,10.300166903973821,1,26.100605245605948,CTtask-8-2026-03-29.mat,374,373.7971867357064,0.0,0.0,6,24,2.789,7.765,3.05092705648358,7.807413344104522,2.7807486631016043,7.754010695187166,0.26192705648358006,0.042413344104522466,0.26533879225676965,-0.008251336898395856,-0.010989304812834
8,xcd,Male,19,Right,3,240,319,258.0,326.0,19.313207915827967,0,13.767854736521258,CTtask-8-2026-03-29.mat,374,373.7971867357064,0.0,0.0,6,24,6.426,8.527,6.898395721925134,8.716577540106952,6.4171122994652405,8.529411764705882,0.47239572192513357,0.18957754010695282,0.5090160722474011,-0.008887700534759624,0.0024117647058830016
8,xcd,Male,19,Right,3,240,319,256.0,322.0,16.278820596099706,1,21.345469627436614,CTtask-8-2026-03-29.mat,374,373.7971867357064,0.0,0.0,6,24,6.426,8.527,6.8449197860962565,8.609625668449198,6.4171122994652405,8.529411764705882,0.41891978609625635,0.08262566844919839,0.42699038428237474,-0.008887700534759624,0.0024117647058830016
8,xcd,Male,19,Right,3,240,319,246.0,322.0,6.708203932499369,1,21.983437936522023,CTtask-8-2026-03-29.mat,374,373.7971867357064,0.0,0.0,6,24,6.426,8.527,6.577540106951871,8.609625668449198,6.4171122994652405,8.529411764705882,0.15154010695187115,0.08262566844919839,0.1726018687664227,-0.008887700534759624,0.0024117647058830016
8,xcd,Male,19,Right,3,240,319,244.0,322.0,5.0,1,18.81072062743624,CTtask-8-2026-03-29.mat,374,373.7971867357064,0.0,0.0,6,24,6.426,8.527,6.524064171122995,8.609625668449198,6.4171122994652405,8.529411764705882,0.09806417112299481,0.08262566844919839,0.1282325338777834,-0.008887700534759624,0.0024117647058830016
8,xcd,Male,19,Right,4,330,251,320.0,246.0,11.180339887498949,1,23.799641436521597,CTtask-8-2026-03-29.mat,374,373.7971867357064,0.0,0.0,6,24,8.817,6.716,8.556149732620321,6.577540106951871,8.823529411764707,6.711229946524064,-0.26085026737967887,-0.1384598930481289,0.29532017197433236,0.006529411764706339,-0.004770053475936287
8,xcd,Male,19,Right,4,330,251,318.0,234.0,20.808652046684813,0,26.98916903652116,CTtask-8-2026-03-29.mat,374,373.7971867357064,0.0,0.0,6,24,8.817,6.716,8.502673796791443,6.256684491978609,8.823529411764707,6.711229946524064,-0.314326203208557,-0.4593155080213913,0.5565713772127128,0.006529411764706339,-0.004770053475936287
8,xcd,Male,19,Right,4,330,251,326.0,244.0,8.06225774829855,1,13.634084445606277,CTtask-8-2026-03-29.mat,374,373.7971867357064,0.0,0.0,6,24,8.817,6.716,8.716577540106952,6.524064171122995,8.823529411764707,6.711229946524064,-0.1004224598930481,-0.19193582887700522,0.2166195578835713,0.006529411764706339,-0.004770053475936287
8,xcd,Male,19,Right,4,330,251,324.0,254.0,6.708203932499369,1,12.79274814560631,CTtask-8-2026-03-29.mat,374,373.7971867357064,0.0,0.0,6,24,8.817,6.716,8.663101604278076,6.79144385026738,8.823529411764707,6.711229946524064,-0.15389839572192443,0.07544385026737999,0.17139571391650638,0.006529411764706339,-0.004770053475936287
8,xcd,Male,19,Right,5,183,76,184.0,76.00000000000001,1.0,1,8.989423145606452,CTtask-8-2026-03-29.mat,374,373.7971867357064,0.0,0.0,6,24,4.894,2.02,4.919786096256685,2.0320855614973263,4.8930481283422465,2.0320855614973263,0.025786096256684488,0.012085561497326314,0.02847777303204473,-0.0009518716577536779,0.012085561497326314
8,xcd,Male,19,Right,5,183,76,184.0,86.00000000000001,10.049875621120904,1,9.814279736521712,CTtask-8-2026-03-29.mat,374,373.7971867357064,0.0,0.0,6,24,4.894,2.02,4.919786096256685,2.2994652406417115,4.8930481283422465,2.0320855614973263,0.025786096256684488,0.2794652406417115,0.28065235343230016,-0.0009518716577536779,0.012085561497326314
8,xcd,Male,19,Right,5,183,76,186.0,78.00000000000001,3.605551275463997,1,8.526569745606139,CTtask-8-2026-03-29.mat,374,373.7971867357064,0.0,0.0,6,24,4.894,2.02,4.973262032085561,2.0855614973262036,4.8930481283422465,2.0320855614973263,0.07926203208556082,0.06556149732620353,0.10286291684560703,-0.0009518716577536779,0.012085561497326314
8,xcd,Male,19,Right,5,183,76,186.0,74.00000000000001,3.6055512754639816,1,9.436433227435373,CTtask-8-2026-03-29.mat,374,373.7971867357064,0.0,0.0,6,24,4.894,2.02,4.973262032085561,1.9786096256684496,4.8930481283422465,2.0320855614973263,0.07926203208556082,-0.04139037433155046,0.08941830247571436,-0.0009518716577536779,0.012085561497326314
8,xcd,Male,19,Right,6,286,119,300.0,106.00000000000001,19.104973174542792,0,23.45616453652201,CTtask-8-2026-03-29.mat,374,373.7971867357064,0.0,0.0,6,24,7.659,3.185,8.02139037433155,2.8342245989304815,7.647058823529411,3.1818181818181817,0.3623903743315511,-0.35077540106951854,0.5043512321821404,-0.011941176470588566,-0.0031818181818183966
8,xcd,Male,19,Right,6,286,119,116.0,292.0,242.54690268069803,0,22.53220183652229,CTtask-8-2026-03-29.mat,374,373.7971867357064,0.0,0.0,6,24,7.659,3.185,3.1016042780748663,7.807486631016043,7.647058823529411,3.1818181818181817,-4.5573957219251335,4.622486631016043,6.491320237066074,-0.011941176470588566,-0.0031818181818183966
8,xcd,Male,19,Right,6,286,119,298.0,116.00000000000001,12.369316876852977,1,12.084226045606556,CTtask-8-2026-03-29.mat,374,373.7971867357064,0.0,0.0,6,24,7.659,3.185,7.967914438502674,3.1016042780748663,7.647058823529411,3.1818181818181817,0.30891443850267386,-0.08339572192513378,0.31997340006762515,-0.011941176470588566,-0.0031818181818183966
8,xcd,Male,19,Right,6,286,119,290.0,116.00000000000001,4.999999999999991,1,17.988701645605943,CTtask-8-2026-03-29.mat,374,373.7971867357064,0.0,0.0,6,24,7.659,3.185,7.754010695187166,3.1016042780748663,7.647058823529411,3.1818181818181817,0.09501069518716587,-0.08339572192513378,0.12641945512998695,-0.011941176470588566,-0.0031818181818183966
9,gsh,Male,19,Right,1,97,192,108.7895770091717,193.54948319887745,11.890963974329134,1,15.341239242188749,CTtask-9-2025-11-25.mat,400,400.21714430331684,0.0,0.0,6,24,2.416,4.788,2.7197394252292924,4.838737079971937,2.425,4.8,0.3037394252292924,0.05073707997193644,0.3079478685146231,0.008999999999999897,0.011999999999999567
9,gsh,Male,19,Right,1,97,192,81.78465975940006,189.96344435249952,15.351030504255602,1,29.58688879075271,CTtask-9-2025-11-25.mat,400,400.21714430331684,0.0,0.0,6,24,2.416,4.788,2.0446164939850013,4.749086108812488,2.425,4.8,-0.3713835060149986,-0.038913891187512206,0.3734166566549302,0.008999999999999897,0.011999999999999567
9,gsh,Male,19,Right,1,97,192,92.38313767504945,194.0028567630324,5.032579153950033,1,20.707245009061808,CTtask-9-2025-11-25.mat,400,400.21714430331684,0.0,0.0,6,24,2.416,4.788,2.309578441876236,4.85007141907581,2.425,4.8,-0.10642155812376375,0.06207141907581004,0.12320068627882906,0.008999999999999897,0.011999999999999567
9,gsh,Male,19,Right,1,97,192,83.34432131353842,211.70392719231285,23.9733666218962,0,13.3478891812847,CTtask-9-2025-11-25.mat,400,400.21714430331684,0.0,0.0,6,24,2.416,4.788,2.0836080328384603,5.292598179807822,2.425,4.8,-0.3323919671615396,0.5045981798078216,0.6042381508138035,0.008999999999999897,0.011999999999999567
9,gsh,Male,19,Right,2,112,311,154.16134384721343,304.5291928901082,42.65501447258444,0,23.201591400000325,CTtask-9-2025-11-25.mat,400,400.21714430331684,0.0,0.0,6,24,2.789,7.765,3.8540335961803356,7.6132298222527055,2.8000000000000003,7.7749999999999995,1.0650335961803354,-0.15177017774729418,1.0757930785454342,0.01100000000000012,0.009999999999999787
9,gsh,Male,19,Right,2,112,311,135.1485645886587,314.33388883389233,23.387408092220383,0,19.697861099597503,CTtask-9-2025-11-25.mat,400,400.21714430331684,0.0,0.0,6,24,2.789,7.765,3.3787141147164674,7.858347220847309,2.8000000000000003,7.7749999999999995,0.5897141147164673,0.09334722084730895,0.5970564803565429,0.01100000000000012,0.009999999999999787
9,gsh,Male,19,Right,2,112,311,117.70742126223271,298.5267037769656,13.717061497717028,1,25.48235938066682,CTtask-9-2025-11-25.mat,400,400.21714430331684,0.0,0.0,6,24,2.789,7.765,2.9426855315558176,7.46316759442414,2.8000000000000003,7.7749999999999995,0.15368553155581743,-0.3018324055758601,0.33870642696191144,0.01100000000000012,0.009999999999999787
9,gsh,Male,19,Right,2,112,311,120.76964358698433,305.2928526054206,10.463182117605998,1,20.52350106173617,CTtask-9-2025-11-25.mat,400,400.21714430331684,0.0,0.0,6,24,2.789,7.765,3.0192410896746082,7.632321315135515,2.8000000000000003,7.7749999999999995,0.2302410896746081,-0.13267868486448453,0.2657340640413271,0.01100000000000012,0.009999999999999787
9,gsh,Male,19,Right,3,257,341,277.8015864645535,332.7065107839026,22.39392691824771,0,28.037016185398898,CTtask-9-2025-11-25.mat,400,400.21714430331684,0.0,0.0,6,24,6.426,8.527,6.945039661613838,8.317662769597566,6.425,8.525,0.5190396616138377,-0.2093372304024328,0.5596644051221843,-0.001000000000000334,-0.0019999999999988916
9,gsh,Male,19,Right,3,257,341,258.33549588971454,343.62102299894053,2.941651038518954,1,24.773561994865304,CTtask-9-2025-11-25.mat,400,400.21714430331684,0.0,0.0,6,24,6.426,8.527,6.458387397242863,8.590525574973514,6.425,8.525,0.03238739724286255,0.06352557497351441,0.07130527453058841,-0.001000000000000334,-0.0019999999999988916
9,gsh,Male,19,Right,3,257,341,262.0704254554004,332.7385373911071,9.693347137955383,1,31.137101794865885,CTtask-9-2025-11-25.mat,400,400.21714430331684,0.0,0.0,6,24,6.426,8.527,6.551760636385011,8.318463434777678,6.425,8.525,0.125760636385011,-0.208536565222321,0.2435225589112563,-0.001000000000000334,-0.0019999999999988916
9,gsh,Male,19,Right,3,257,341,266.3219948215486,326.5880737801749,17.164008996113388,1,30.323743723260122,CTtask-9-2025-11-25.mat,400,400.21714430331684,0.0,0.0,6,24,6.426,8.527,6.658049870538716,8.164701844504373,6.425,8.525,0.23204987053871573,-0.36229815549562616,0.43024074178600014,-0.001000000000000334,-0.0019999999999988916
9,gsh,Male,19,Right,4,353,269,347.1364313058285,263.6458392496693,7.940306994798742,1,26.201527028610144,CTtask-9-2025-11-25.mat,400,400.21714430331684,0.0,0.0,6,24,8.817,6.716,8.678410782645713,6.5911459812417315,8.825,6.725,-0.1385892173542871,-0.12485401875826874,0.18653551181199773,0.007999999999999119,0.008999999999999453
9,gsh,Male,19,Right,4,353,269,347.8732752386755,252.47845924036562,17.29868826965322,1,21.513439109061437,CTtask-9-2025-11-25.mat,400,400.21714430331684,0.0,0.0,6,24,8.817,6.716,8.696831880966888,6.31196148100914,8.825,6.725,-0.12016811903311186,-0.40403851899085996,0.42152995345560396,0.007999999999999119,0.008999999999999453
9,gsh,Male,19,Right,4,353,269,336.9703151768674,259.10797472323094,18.836214046490475,1,25.77133283272451,CTtask-9-2025-11-25.mat,400,400.21714430331684,0.0,0.0,6,24,8.817,6.716,8.424257879421685,6.477699368080774,8.825,6.725,-0.3927421205783155,-0.238300631919226,0.4593838965935294,0.007999999999999119,0.008999999999999453
9,gsh,Male,19,Right,4,353,269,356.85497776950035,252.01195471687808,17.419946502350196,1,23.58682448066611,CTtask-9-2025-11-25.mat,400,400.21714430331684,0.0,0.0,6,24,8.817,6.716,8.92137444423751,6.300298867921952,8.825,6.725,0.10437444423750897,-0.4157011320780484,0.4286040781663888,0.007999999999999119,0.008999999999999453
9,gsh,Male,19,Right,5,196,81,199.0152123323336,92.79402688791365,12.17335515139054,1,16.43598157120323,CTtask-9-2025-11-25.mat,400,400.21714430331684,0.0,0.0,6,24,4.894,2.02,4.97538030830834,2.319850672197841,4.9,2.0250000000000004,0.08138030830833998,0.2998506721978411,0.3106978921683532,0.006000000000000227,0.0050000000000003375
9,gsh,Male,19,Right,5,196,81,208.35647667558538,96.85018549390965,20.097534575803806,0,43.69088794280833,CTtask-9-2025-11-25.mat,400,400.21714430331684,0.0,0.0,6,24,4.894,2.02,5.208911916889635,2.421254637347741,4.9,2.0250000000000004,0.3149119168896348,0.401254637347741,0.5100733274659355,0.006000000000000227,0.0050000000000003375
9,gsh,Male,19,Right,5,196,81,203.23686913638434,100.7724944605693,21.055256163020104,0,18.291707494865477,CTtask-9-2025-11-25.mat,400,400.21714430331684,0.0,0.0,6,24,4.894,2.02,5.080921728409608,2.5193123615142325,4.9,2.0250000000000004,0.18692172840960808,0.49931236151423253,0.5331534178006879,0.006000000000000227,0.0050000000000003375
9,gsh,Male,19,Right,5,196,81,191.5983601187183,92.35840756823107,12.18145541922387,1,16.83533393745529,CTtask-9-2025-11-25.mat,400,400.21714430331684,0.0,0.0,6,24,4.894,2.02,4.789959002967957,2.3089601892057767,4.9,2.0250000000000004,-0.10404099703204306,0.2889601892057767,0.3071197160868378,0.006000000000000227,0.0050000000000003375
9,gsh,Male,19,Right,6,306,127,305.8383422657315,144.57017527270804,17.570918938311962,1,13.595767213795625,CTtask-9-2025-11-25.mat,400,400.21714430331684,0.0,0.0,6,24,7.659,3.185,7.645958556643287,3.614254381817701,7.65,3.175,-0.013041443356712534,0.4292543818177008,0.42945244620856776,-0.008999999999999453,-0.010000000000000231
9,gsh,Male,19,Right,6,306,127,307.389184459611,118.06571016089242,9.04164633194672,1,32.09131207120299,CTtask-9-2025-11-25.mat,400,400.21714430331684,0.0,0.0,6,24,7.659,3.185,7.684729611490275,2.9516427540223105,7.65,3.175,0.025729611490275417,-0.2333572459776896,0.2347714146946609,-0.008999999999999453,-0.010000000000000231
9,gsh,Male,19,Right,6,306,127,307.1618153487993,131.12665049736762,4.2870805021751135,1,40.33290810433027,CTtask-9-2025-11-25.mat,400,400.21714430331684,0.0,0.0,6,24,7.659,3.185,7.679045383719982,3.2781662624341905,7.65,3.175,0.020045383719982546,0.09316626243419046,0.09529832036524984,-0.008999999999999453,-0.010000000000000231
9,gsh,Male,19,Right,6,306,127,303.82189154319354,141.8127685155074,14.97204954385401,1,19.324205142189385,CTtask-9-2025-11-25.mat,400,400.21714430331684,0.0,0.0,6,24,7.659,3.185,7.595547288579838,3.545319212887685,7.65,3.175,-0.06345271142016173,0.36031921288768487,0.36586361087510616,-0.008999999999999453,-0.010000000000000231
10,lyj,Male,19,Right,1,90,179,92.0,184.0,5.385164807134504,1,8.755479092455971,CTtask-10-2026-03-29.mat,373,373.34740428022405,0.0,0.0,6,24,2.416,4.788,2.4664879356568363,4.932975871313673,2.4128686327077746,4.798927613941019,0.0504879356568364,0.1449758713136724,0.15351558523500913,-0.0031313672922252955,0.010927613941018599
10,lyj,Male,19,Right,1,90,179,100.0,190.0,14.866068747318506,1,11.05357308380826,CTtask-10-2026-03-29.mat,373,373.34740428022405,0.0,0.0,6,24,2.416,4.788,2.680965147453083,5.093833780160858,2.4128686327077746,4.798927613941019,0.2649651474530832,0.3058337801608575,0.40464902131639197,-0.0031313672922252955,0.010927613941018599
10,lyj,Male,19,Right,1,90,179,92.0,186.0,7.280109889280518,1,9.814173883808508,CTtask-10-2026-03-29.mat,373,373.34740428022405,0.0,0.0,6,24,2.416,4.788,2.4664879356568363,4.986595174262734,2.4128686327077746,4.798927613941019,0.0504879356568364,0.1985951742627341,0.20491235903999197,-0.0031313672922252955,0.010927613941018599
10,lyj,Male,19,Right,1,90,179,90.0,192.0,13.0,1,13.153788792455089,CTtask-10-2026-03-29.mat,373,373.34740428022405,0.0,0.0,6,24,2.416,4.788,2.4128686327077746,5.1474530831099194,2.4128686327077746,4.798927613941019,-0.0031313672922252955,0.3594530831099192,0.359466722268342,-0.0031313672922252955,0.010927613941018599
10,lyj,Male,19,Right,2,104,290,116.0,276.0,18.439088914585774,1,11.575150992455747,CTtask-10-2026-03-29.mat,373,373.34740428022405,0.0,0.0,6,24,2.789,7.765,3.1099195710455763,7.39946380697051,2.7882037533512065,7.774798927613941,0.3209195710455761,-0.3655361930294898,0.48642170952227143,-0.0007962466487936304,0.009798927613941188
10,lyj,Male,19,Right,2,104,290,110.0,278.0,13.416407864998739,1,16.034416401103044,CTtask-10-2026-03-29.mat,373,373.34740428022405,0.0,0.0,6,24,2.789,7.765,2.949061662198391,7.453083109919572,2.7882037533512065,7.774798927613941,0.16006166219839102,-0.3119168900804281,0.35058790912288706,-0.0007962466487936304,0.009798927613941188
10,lyj,Male,19,Right,2,104,290,113.89532808751412,281.99725906950914,12.726404848192574,1,13.673078583809001,CTtask-10-2026-03-29.mat,373,373.34740428022405,0.0,0.0,6,24,2.789,7.765,3.0534940506035957,7.5602482324265186,2.7882037533512065,7.774798927613941,0.26449405060359554,-0.20475176757348112,0.33448525995798706,-0.0007962466487936304,0.009798927613941188
10,lyj,Male,19,Right,2,104,290,116.0,270.0,23.323807579381203,0,12.018900483808466,CTtask-10-2026-03-29.mat,373,373.34740428022405,0.0,0.0,6,24,2.789,7.765,3.1099195710455763,7.238605898123325,2.7882037533512065,7.774798927613941,0.3209195710455761,-0.5263941018766749,0.6165063840469357,-0.0007962466487936304,0.009798927613941188
10,lyj,Male,19,Right,3,240,318,228.0,332.0,18.439088914585774,1,13.405811275160886,CTtask-10-2026-03-29.mat,373,373.34740428022405,0.0,0.0,6,24,6.426,8.527,6.112600536193029,8.900804289544237,6.434316353887399,8.525469168900804,-0.31339946380697103,0.3738042895442373,0.4878000315663878,0.008316353887399153,-0.0015308310991954954
10,lyj,Male,19,Right,3,240,318,230.0,326.0,12.806248474865697,1,13.236602692455563,CTtask-10-2026-03-29.mat,373,373.34740428022405,0.0,0.0,6,24,6.426,8.527,6.166219839142091,8.73994638069705,6.434316353887399,8.525469168900804,-0.25978016085790934,0.2129463806970513,0.335904589172781,0.008316353887399153,-0.0015308310991954954
10,lyj,Male,19,Right,3,240,318,234.0,330.0,13.416407864998739,1,9.232174901102553,CTtask-10-2026-03-29.mat,373,373.34740428022405,0.0,0.0,6,24,6.426,8.527,6.273458445040214,8.847184986595174,6.434316353887399,8.525469168900804,-0.15254155495978594,0.3201849865951747,0.3546651260421605,0.008316353887399153,-0.0015308310991954954
10,lyj,Male,19,Right,3,240,318,228.0,326.0,14.422205101855956,1,10.08385079245636,CTtask-10-2026-03-29.mat,373,373.34740428022405,0.0,0.0,6,24,6.426,8.527,6.112600536193029,8.73994638069705,6.434316353887399,8.525469168900804,-0.31339946380697103,0.2129463806970513,0.378900230887328,0.008316353887399153,-0.0015308310991954954
10,lyj,Male,19,Right,4,329,251,332.0,266.0,15.297058540778355,1,18.41942157138874,CTtask-10-2026-03-29.mat,373,373.34740428022405,0.0,0.0,6,24,8.817,6.716,8.900804289544237,7.131367292225201,8.820375335120644,6.729222520107239,0.08380428954423635,0.4153672922252012,0.4237371194461372,0.0033753351206442517,0.0132225201072389
10,lyj,Male,19,Right,4,329,251,332.0,268.0,17.26267650163207,1,12.834187283808205,CTtask-10-2026-03-29.mat,373,373.34740428022405,0.0,0.0,6,24,8.817,6.716,8.900804289544237,7.184986595174263,8.820375335120644,6.729222520107239,0.08380428954423635,0.4689865951742629,0.47641534966787347,0.0033753351206442517,0.0132225201072389
10,lyj,Male,19,Right,4,329,251,328.0,266.0,15.033296378372908,1,12.876330601103291,CTtask-10-2026-03-29.mat,373,373.34740428022405,0.0,0.0,6,24,8.817,6.716,8.793565683646113,7.131367292225201,8.820375335120644,6.729222520107239,-0.02343431635388704,0.4153672922252012,0.4160278291574612,0.0033753351206442517,0.0132225201072389
10,lyj,Male,19,Right,4,329,251,336.0,272.0,22.135943621178654,0,10.483997175159857,CTtask-10-2026-03-29.mat,373,373.34740428022405,0.0,0.0,6,24,8.817,6.716,9.00804289544236,7.2922252010723865,8.820375335120644,6.729222520107239,0.19104289544235975,0.5762252010723863,0.607069081942008,0.0033753351206442517,0.0132225201072389
10,lyj,Male,19,Right,5,183,75,184.0,86.00000000000001,11.045361017187275,1,8.292634283808184,CTtask-10-2026-03-29.mat,373,373.34740428022405,0.0,0.0,6,24,4.894,2.02,4.932975871313673,2.305630026809652,4.906166219839142,2.0107238605898123,0.03897587131367253,0.2856300268096521,0.28827700352255387,0.012166219839142123,-0.009276139410187678
10,lyj,Male,19,Right,5,183,75,184.0,78.00000000000001,3.162277660168393,1,8.03211590110368,CTtask-10-2026-03-29.mat,373,373.34740428022405,0.0,0.0,6,24,4.894,2.02,4.932975871313673,2.0911528150134053,4.906166219839142,2.0107238605898123,0.03897587131367253,0.07115281501340531,0.08112855002397021,0.012166219839142123,-0.009276139410187678
10,lyj,Male,19,Right,5,183,75,186.0,74.00000000000001,3.1622776601683746,1,6.07697391462716,CTtask-10-2026-03-29.mat,373,373.34740428022405,0.0,0.0,6,24,4.894,2.02,4.986595174262734,1.983914209115282,4.906166219839142,2.0107238605898123,0.09259517426273423,-0.03608579088471808,0.09937832057607797,0.012166219839142123,-0.009276139410187678
10,lyj,Male,19,Right,5,183,75,190.0,78.00000000000001,7.615773105863914,1,8.026059883808557,CTtask-10-2026-03-29.mat,373,373.34740428022405,0.0,0.0,6,24,4.894,2.02,5.093833780160858,2.0911528150134053,4.906166219839142,2.0107238605898123,0.19983378016085762,0.07115281501340531,0.21212322545565312,0.012166219839142123,-0.009276139410187678
10,lyj,Male,19,Right,6,286,119,280.0,118.00000000000001,6.082762530298218,1,10.605494201103284,CTtask-10-2026-03-29.mat,373,373.34740428022405,0.0,0.0,6,24,7.659,3.185,7.506702412868632,3.1635388739946384,7.6675603217158175,3.190348525469169,-0.15229758713136743,-0.021461126005361653,0.15380225933143657,0.008560321715817665,0.005348525469168752
10,lyj,Male,19,Right,6,286,119,278.0,106.00000000000001,15.264337522473737,1,12.071889675160492,CTtask-10-2026-03-29.mat,373,373.34740428022405,0.0,0.0,6,24,7.659,3.185,7.453083109919572,2.841823056300268,7.6675603217158175,3.190348525469169,-0.20591689008042824,-0.34317694369973184,0.40021516751303177,0.008560321715817665,0.005348525469168752
10,lyj,Male,19,Right,6,286,119,274.0,120.00000000000001,12.041594578792296,1,13.855577483808702,CTtask-10-2026-03-29.mat,373,373.34740428022405,0.0,0.0,6,24,7.659,3.185,7.345844504021448,3.2171581769437,7.6675603217158175,3.190348525469169,-0.31315549597855163,0.032158176943700045,0.31480233958138715,0.008560321715817665,0.005348525469168752
10,lyj,Male,19,Right,6,286,119,274.0,114.00000000000001,12.999999999999995,1,13.194152883807874,CTtask-10-2026-03-29.mat,373,373.34740428022405,0.0,0.0,6,24,7.659,3.185,7.345844504021448,3.056300268096515,7.6675603217158175,3.190348525469169,-0.31315549597855163,-0.12869973190348505,0.3385705032243677,0.008560321715817665,0.005348525469168752
11,zq,Female,23,Right,1,97,192,195.20911295849623,103.22164603830356,132.38816412445237,0,16.315146685134096,CTtask-11-2025-11-25.mat,400,400.21714430331684,0.0,0.0,6,24,2.416,4.788,4.8802278239624055,2.5805411509575893,2.425,4.8,2.4642278239624056,-2.207458849042411,3.308367171068855,0.008999999999999897,0.011999999999999567
11,zq,Female,23,Right,1,97,192,106.54049654039491,177.21479441136665,17.596118280332227,1,14.023767071859766,CTtask-11-2025-11-25.mat,400,400.21714430331684,0.0,0.0,6,24,2.416,4.788,2.6635124135098724,4.430369860284166,2.425,4.8,0.24751241350987252,-0.3576301397158339,0.434927248714827,0.008999999999999897,0.011999999999999567
11,zq,Female,23,Right,1,97,192,114.21442630461122,195.1222040976054,17.495274545544998,1,13.45190197557531,CTtask-11-2025-11-25.mat,400,400.21714430331684,0.0,0.0,6,24,2.416,4.788,2.8553606576152806,4.878055102440134,2.425,4.8,0.43936065761528065,0.09005510244013415,0.4484949374693486,0.008999999999999897,0.011999999999999567
11,zq,Female,23,Right,1,97,192,97.8896700018288,196.26621598458945,4.357993981101925,1,10.350746286196227,CTtask-11-2025-11-25.mat,400,400.21714430331684,0.0,0.0,6,24,2.416,4.788,2.4472417500457198,4.906655399614736,2.425,4.8,0.03124175004571983,0.11865539961473548,0.12269943277640612,0.008999999999999897,0.011999999999999567
11,zq,Female,23,Right,2,112,311,107.2193214510493,296.8993090948048,14.88906885578318,1,24.116026683010205,CTtask-11-2025-11-25.mat,400,400.21714430331684,0.0,0.0,6,24,2.789,7.765,2.6804830362762324,7.42248272737012,2.8000000000000003,7.7749999999999995,-0.10851696372376773,-0.3425172726298795,0.3592965536512099,0.01100000000000012,0.009999999999999787
11,zq,Female,23,Right,2,112,311,115.99404046760075,293.61827663316234,17.834703991322726,1,16.68334098406922,CTtask-11-2025-11-25.mat,400,400.21714430331684,0.0,0.0,6,24,2.789,7.765,2.8998510116900187,7.3404569158290585,2.8000000000000003,7.7749999999999995,0.11085101169001854,-0.4245430841709412,0.4387764545985524,0.01100000000000012,0.009999999999999787
11,zq,Female,23,Right,2,112,311,121.18050506605627,290.0496646709621,22.873526699374942,0,11.306830685134628,CTtask-11-2025-11-25.mat,400,400.21714430331684,0.0,0.0,6,24,2.789,7.765,3.0295126266514067,7.2512416167740525,2.8000000000000003,7.7749999999999995,0.2405126266514066,-0.5137583832259471,0.5672688955986377,0.01100000000000012,0.009999999999999787
11,zq,Female,23,Right,2,112,311,121.86449368719278,297.1744111355581,16.983967238347052,1,16.24316268513212,CTtask-11-2025-11-25.mat,400,400.21714430331684,0.0,0.0,6,24,2.789,7.765,3.0466123421798197,7.429360278388952,2.8000000000000003,7.7749999999999995,0.25761234217981954,-0.3356397216110478,0.4231053551617069,0.01100000000000012,0.009999999999999787
11,zq,Female,23,Right,3,257,341,121.56425510197178,294.30397378106,143.25976357904443,0,19.653152085134934,CTtask-11-2025-11-25.mat,400,400.21714430331684,0.0,0.0,6,24,6.426,8.527,3.0391063775492944,7.3575993445265,6.425,8.525,-3.386893622450706,-1.169400655473499,3.583091724030954,-0.001000000000000334,-0.0019999999999988916
11,zq,Female,23,Right,3,257,341,256.451949565067,355.46291101181356,14.473291063710015,1,21.73058618460709,CTtask-11-2025-11-25.mat,400,400.21714430331684,0.0,0.0,6,24,6.426,8.527,6.411298739126675,8.88657277529534,6.425,8.525,-0.01470126087332524,0.3595727752953408,0.35987318294763115,-0.001000000000000334,-0.0019999999999988916
11,zq,Female,23,Right,3,257,341,252.3305317669444,355.2772477593416,15.021442579231206,1,20.49275138460507,CTtask-11-2025-11-25.mat,400,400.21714430331684,0.0,0.0,6,24,6.426,8.527,6.30826329417361,8.88193119398354,6.425,8.525,-0.11773670582639006,0.3549311939835409,0.37394930720811853,-0.001000000000000334,-0.0019999999999988916
11,zq,Female,23,Right,3,257,341,262.8220604332459,360.15622347028676,20.021420662179114,0,21.697815284602257,CTtask-11-2025-11-25.mat,400,400.21714430331684,0.0,0.0,6,24,6.426,8.527,6.570551510831147,9.003905586757169,6.425,8.525,0.14455151083114703,0.47690558675716943,0.4983312933819903,-0.001000000000000334,-0.0019999999999988916
11,zq,Female,23,Right,4,353,269,367.2429026447305,253.68915314482408,20.911296161881552,0,22.65147118407367,CTtask-11-2025-11-25.mat,400,400.21714430331684,0.0,0.0,6,24,8.817,6.716,9.181072566118264,6.342228828620602,8.825,6.725,0.36407256611826355,-0.3737711713793983,0.5217793805376607,0.007999999999999119,0.008999999999999453
11,zq,Female,23,Right,4,353,269,364.56169408705205,261.1267381636443,13.987888407704343,1,19.747585371860623,CTtask-11-2025-11-25.mat,400,400.21714430331684,0.0,0.0,6,24,8.817,6.716,9.114042352176302,6.528168454091108,8.825,6.725,0.2970423521763017,-0.1878315459088924,0.3514467934481042,0.007999999999999119,0.008999999999999453
11,zq,Female,23,Right,4,353,269,354.08445022433045,255.7399359713226,13.30433502034861,1,18.02414178566687,CTtask-11-2025-11-25.mat,400,400.21714430331684,0.0,0.0,6,24,8.817,6.716,8.85211125560826,6.393498399283065,8.825,6.725,0.03511125560826045,-0.3225016007169348,0.3244072791035581,0.007999999999999119,0.008999999999999453
11,zq,Female,23,Right,4,353,269,363.91847371357693,249.79626856229137,22.090639858675644,0,21.135654584606527,CTtask-11-2025-11-25.mat,400,400.21714430331684,0.0,0.0,6,24,8.817,6.716,9.097961842839425,6.244906714057285,8.825,6.725,0.2809618428394245,-0.4710932859427155,0.5485147593201395,0.007999999999999119,0.008999999999999453
11,zq,Female,23,Right,5,196,81,198.1673675389741,85.5581971429209,5.04724115163234,1,12.335462569206356,CTtask-11-2025-11-25.mat,400,400.21714430331684,0.0,0.0,6,24,4.894,2.02,4.954184188474352,2.1389549285730225,4.9,2.0250000000000004,0.06018418847435214,0.11895492857302248,0.1333132085508755,0.006000000000000227,0.0050000000000003375
11,zq,Female,23,Right,5,196,81,192.5159402637889,94.75960137934834,14.193847341860911,1,15.112803086194617,CTtask-11-2025-11-25.mat,400,400.21714430331684,0.0,0.0,6,24,4.894,2.02,4.812898506594722,2.3689900344837085,4.9,2.0250000000000004,-0.08110149340527784,0.34899003448370847,0.35828968224260427,0.006000000000000227,0.0050000000000003375
11,zq,Female,23,Right,5,196,81,197.12488039833042,116.05561025270042,35.07365344670815,0,10.237192984604917,CTtask-11-2025-11-25.mat,400,400.21714430331684,0.0,0.0,6,24,4.894,2.02,4.928122009958261,2.9013902563175105,4.9,2.0250000000000004,0.03412200995826087,0.8813902563175104,0.8820505062041734,0.006000000000000227,0.0050000000000003375
11,zq,Female,23,Right,5,196,81,198.65056769642027,86.0341721957169,5.689323229474295,1,9.347836085664312,CTtask-11-2025-11-25.mat,400,400.21714430331684,0.0,0.0,6,24,4.894,2.02,4.966264192410507,2.1508543048929227,4.9,2.0250000000000004,0.07226419241050674,0.1308543048929227,0.149482315387984,0.006000000000000227,0.0050000000000003375
11,zq,Female,23,Right,6,306,127,283.3328839389176,111.9534960979458,27.206532858876248,0,16.846751285134815,CTtask-11-2025-11-25.mat,400,400.21714430331684,0.0,0.0,6,24,7.659,3.185,7.083322098472939,2.798837402448645,7.65,3.175,-0.5756779015270608,-0.3861625975513552,0.6932002582617884,-0.008999999999999453,-0.010000000000000231
11,zq,Female,23,Right,6,306,127,291.00195785918856,107.80944578091206,24.35608012988358,0,16.841961485664797,CTtask-11-2025-11-25.mat,400,400.21714430331684,0.0,0.0,6,24,7.659,3.185,7.275048946479714,2.6952361445228012,7.65,3.175,-0.3839510535202857,-0.4897638554771988,0.6223239073273883,-0.008999999999999453,-0.010000000000000231
11,zq,Female,23,Right,6,306,127,289.9519538069243,117.14131533109939,18.834368851010325,1,14.95701558460496,CTtask-11-2025-11-25.mat,400,400.21714430331684,0.0,0.0,6,24,7.659,3.185,7.2487988451731065,2.9285328832774846,7.65,3.175,-0.41020115482689334,-0.25646711672251543,0.4837771898108439,-0.008999999999999453,-0.010000000000000231
11,zq,Female,23,Right,6,306,127,291.7769736955473,110.92381489766514,21.464813176491568,0,13.015065985666297,CTtask-11-2025-11-25.mat,400,400.21714430331684,0.0,0.0,6,24,7.659,3.185,7.294424342388684,2.7730953724416283,7.65,3.175,-0.36457565761131594,-0.41190462755837176,0.5500734790250521,-0.008999999999999453,-0.010000000000000231
12,zzc,Male,23,Right,1,76,150,78.0,158.0,8.246211251235321,1,6.204877399999532,CTtask-12-2026-04-12.mat,313,313.0230152456045,0.0,0.0,6,24,2.416,4.788,2.4920127795527156,5.047923322683706,2.428115015974441,4.7923322683706076,0.07601277955271568,0.2599233226837061,0.270810037351402,0.012115015974440979,0.004332268370607295
12,zzc,Male,23,Right,1,76,150,80.0,158.0,8.94427190999916,1,15.480929000000287,CTtask-12-2026-04-12.mat,313,313.0230152456045,0.0,0.0,6,24,2.416,4.788,2.5559105431309903,5.047923322683706,2.428115015974441,4.7923322683706076,0.13991054313099038,0.2599233226837061,0.29518654060466026,0.012115015974440979,0.004332268370607295
12,zzc,Male,23,Right,1,76,150,80.0,156.0,7.211102550927978,1,7.64078040000004,CTtask-12-2026-04-12.mat,313,313.0230152456045,0.0,0.0,6,24,2.416,4.788,2.5559105431309903,4.984025559105431,2.428115015974441,4.7923322683706076,0.13991054313099038,0.19602555910543096,0.24083392597764444,0.012115015974440979,0.004332268370607295
12,zzc,Male,23,Right,1,76,150,82.0,162.0,13.416407864998739,1,4.568533899999238,CTtask-12-2026-04-12.mat,313,313.0230152456045,0.0,0.0,6,24,2.416,4.788,2.6198083067092655,5.175718849840255,2.428115015974441,4.7923322683706076,0.20380830670926553,0.3877188498402546,0.43802252499745714,0.012115015974440979,0.004332268370607295
12,zzc,Male,23,Right,2,87,243,108.0,230.0,24.698178070456937,0,12.810538899999301,CTtask-12-2026-04-12.mat,313,313.0230152456045,0.0,0.0,6,24,2.789,7.765,3.450479233226837,7.348242811501597,2.779552715654952,7.763578274760383,0.6614792332268369,-0.41675718849840226,0.7818192439147663,-0.009447284345048157,-0.0014217252396164781
12,zzc,Male,23,Right,2,87,243,104.0,228.0,22.67156809750927,0,11.535823100000016,CTtask-12-2026-04-12.mat,313,313.0230152456045,0.0,0.0,6,24,2.789,7.765,3.322683706070287,7.284345047923323,2.779552715654952,7.763578274760383,0.533683706070287,-0.4806549520766765,0.7182252300502598,-0.009447284345048157,-0.0014217252396164781
12,zzc,Male,23,Right,2,87,243,100.0,220.0,26.419689627245813,0,6.901806599999873,CTtask-12-2026-04-12.mat,313,313.0230152456045,0.0,0.0,6,24,2.789,7.765,3.1948881789137378,7.0287539936102235,2.779552715654952,7.763578274760383,0.40588817891373763,-0.7362460063897762,0.8407160018144086,-0.009447284345048157,-0.0014217252396164781
12,zzc,Male,23,Right,2,87,243,100.0,224.0,23.021728866442675,0,6.387114699999984,CTtask-12-2026-04-12.mat,313,313.0230152456045,0.0,0.0,6,24,2.789,7.765,3.1948881789137378,7.156549520766773,2.779552715654952,7.763578274760383,0.40588817891373763,-0.6084504792332268,0.7314076834851092,-0.009447284345048157,-0.0014217252396164781
12,zzc,Male,23,Right,3,201,267,208.0,262.0,8.602325267042627,1,10.912776899999699,CTtask-12-2026-04-12.mat,313,313.0230152456045,0.0,0.0,6,24,6.426,8.527,6.645367412140574,8.370607028753994,6.421725239616613,8.53035143769968,0.2193674121405742,-0.15639297124600482,0.2694082830285777,-0.004274760383387033,0.00335143769968127
12,zzc,Male,23,Right,3,201,267,208.0,256.0,13.038404810405298,1,8.38866760000019,CTtask-12-2026-04-12.mat,313,313.0230152456045,0.0,0.0,6,24,6.426,8.527,6.645367412140574,8.178913738019169,6.421725239616613,8.53035143769968,0.2193674121405742,-0.34808626198083026,0.4114439297025048,-0.004274760383387033,0.00335143769968127
12,zzc,Male,23,Right,3,201,267,212.0,260.0,13.038404810405298,1,6.822367199999462,CTtask-12-2026-04-12.mat,313,313.0230152456045,0.0,0.0,6,24,6.426,8.527,6.773162939297125,8.30670926517572,6.421725239616613,8.53035143769968,0.3471629392971245,-0.22029073482427997,0.4111570433190221,-0.004274760383387033,0.00335143769968127
12,zzc,Male,23,Right,3,201,267,206.0,258.0,10.295630140987,1,7.823722699999962,CTtask-12-2026-04-12.mat,313,313.0230152456045,0.0,0.0,6,24,6.426,8.527,6.5814696485623,8.242811501597444,6.421725239616613,8.53035143769968,0.15546964856229994,-0.2841884984025551,0.3239350463416765,-0.004274760383387033,0.00335143769968127
12,zzc,Male,23,Right,4,276,210,280.0,202.0,8.94427190999916,1,11.134850100000222,CTtask-12-2026-04-12.mat,313,313.0230152456045,0.0,0.0,6,24,8.817,6.716,8.945686900958465,6.453674121405751,8.817891373801917,6.70926517571885,0.12868690095846524,-0.2623258785942495,0.29219032334856465,0.0008913738019167283,-0.006734824281149798
12,zzc,Male,23,Right,4,276,210,284.0,198.0,14.422205101855956,1,9.787828399999853,CTtask-12-2026-04-12.mat,313,313.0230152456045,0.0,0.0,6,24,8.817,6.716,9.073482428115016,6.325878594249201,8.817891373801917,6.70926517571885,0.25648242811501554,-0.3901214057507989,0.46688108459944444,0.0008913738019167283,-0.006734824281149798
12,zzc,Male,23,Right,4,276,210,280.0,212.0,4.47213595499958,1,11.87784240000019,CTtask-12-2026-04-12.mat,313,313.0230152456045,0.0,0.0,6,24,8.817,6.716,8.945686900958465,6.773162939297125,8.817891373801917,6.70926517571885,0.12868690095846524,0.05716293929712446,0.14081164762682305,0.0008913738019167283,-0.006734824281149798
12,zzc,Male,23,Right,4,276,210,284.0,206.0,8.94427190999916,1,10.006301000000349,CTtask-12-2026-04-12.mat,313,313.0230152456045,0.0,0.0,6,24,8.817,6.716,9.073482428115016,6.5814696485623,8.817891373801917,6.70926517571885,0.25648242811501554,-0.1345303514377001,0.2896232922085605,0.0008913738019167283,-0.006734824281149798
12,zzc,Male,23,Right,5,153,63,156.0,58.000000000000014,5.830951894845288,1,8.834622000000309,CTtask-12-2026-04-12.mat,313,313.0230152456045,0.0,0.0,6,24,4.894,2.02,4.984025559105431,1.8530351437699686,4.888178913738019,2.012779552715655,0.09002555910543109,-0.16696485623003143,0.1896888623724665,-0.005821086261980746,-0.0072204472843449
12,zzc,Male,23,Right,5,153,63,154.0,56.0,7.0710678118654755,1,10.493000700000266,CTtask-12-2026-04-12.mat,313,313.0230152456045,0.0,0.0,6,24,4.894,2.02,4.920127795527157,1.7891373801916932,4.888178913738019,2.012779552715655,0.026127795527156827,-0.2308626198083068,0.2323364175583839,-0.005821086261980746,-0.0072204472843449
12,zzc,Male,23,Right,5,153,63,158.0,60.000000000000014,5.830951894845293,1,4.7149146000001565,CTtask-12-2026-04-12.mat,313,313.0230152456045,0.0,0.0,6,24,4.894,2.02,5.047923322683706,1.9169329073482433,4.888178913738019,2.012779552715655,0.15392332268370623,-0.10306709265175673,0.18524366346430898,-0.005821086261980746,-0.0072204472843449
12,zzc,Male,23,Right,5,153,63,158.0,66.00000000000001,5.830951894845308,1,5.326403900000514,CTtask-12-2026-04-12.mat,313,313.0230152456045,0.0,0.0,6,24,4.894,2.02,5.047923322683706,2.1086261980830674,4.888178913738019,2.012779552715655,0.15392332268370623,0.08862619808306738,0.1776147298301902,-0.005821086261980746,-0.0072204472843449
12,zzc,Male,23,Right,6,240,100,240.0,94.00000000000001,5.999999999999986,1,23.880480400000124,CTtask-12-2026-04-12.mat,313,313.0230152456045,0.0,0.0,6,24,7.659,3.185,7.667731629392971,3.0031948881789146,7.667731629392971,3.1948881789137378,0.008731629392971563,-0.1818051118210855,0.1820146698377183,0.008731629392971563,0.009888178913737722
12,zzc,Male,23,Right,6,240,100,246.0,72.00000000000001,28.635642126552693,0,8.784345799999755,CTtask-12-2026-04-12.mat,313,313.0230152456045,0.0,0.0,6,24,7.659,3.185,7.859424920127795,2.300319488817892,7.667731629392971,3.1948881789137378,0.20042492012779523,-0.8846805111821081,0.907099639220339,0.008731629392971563,0.009888178913737722
12,zzc,Male,23,Right,6,240,100,248.0,76.00000000000001,25.298221281347022,0,8.638147199999366,CTtask-12-2026-04-12.mat,313,313.0230152456045,0.0,0.0,6,24,7.659,3.185,7.92332268370607,2.4281150159744413,7.667731629392971,3.1948881789137378,0.26432268370607037,-0.7568849840255587,0.801711519291665,0.008731629392971563,0.009888178913737722
12,zzc,Male,23,Right,6,240,100,240.019186513436,68.73270338740123,31.267302499296743,0,15.264572599999155,CTtask-12-2026-04-12.mat,313,313.0230152456045,0.0,0.0,6,24,7.659,3.185,7.668344617042684,2.1959330155719243,7.667731629392971,3.1948881789137378,0.009344617042684078,-0.9890669844280757,0.9891111269990455,0.008731629392971563,0.009888178913737722
13,jf,Male,22,Right,1,97,192,92.00000000000001,194.0,5.38516480713449,1,16.30446008695435,CTtask-13-2025-12-06.mat,400,400.21714430331684,0.0,0.0,6,24,2.416,4.788,2.3000000000000003,4.85,2.425,4.8,-0.11599999999999966,0.06199999999999939,0.13152946437965848,0.008999999999999897,0.011999999999999567
13,jf,Male,22,Right,1,97,192,92.00000000000001,194.0,5.38516480713449,1,25.38966648595124,CTtask-13-2025-12-06.mat,400,400.21714430331684,0.0,0.0,6,24,2.416,4.788,2.3000000000000003,4.85,2.425,4.8,-0.11599999999999966,0.06199999999999939,0.13152946437965848,0.008999999999999897,0.011999999999999567
13,jf,Male,22,Right,1,97,192,90.00000000000001,190.0,7.280109889280505,1,25.790490685951227,CTtask-13-2025-12-06.mat,400,400.21714430331684,0.0,0.0,6,24,2.416,4.788,2.2500000000000004,4.75,2.425,4.8,-0.16599999999999948,-0.038000000000000256,0.17029386365926355,0.008999999999999897,0.011999999999999567
13,jf,Male,22,Right,1,97,192,88.00000000000001,196.0,9.848857801796091,1,21.250158884446137,CTtask-13-2025-12-06.mat,400,400.21714430331684,0.0,0.0,6,24,2.416,4.788,2.2,4.9,2.425,4.8,-0.21599999999999975,0.1120000000000001,0.2433105012119286,0.008999999999999897,0.011999999999999567
13,jf,Male,22,Right,2,112,311,102.00000000000001,296.0,18.02775637731994,1,27.589378183944063,CTtask-13-2025-12-06.mat,400,400.21714430331684,0.0,0.0,6,24,2.789,7.765,2.5500000000000007,7.4,2.8000000000000003,7.7749999999999995,-0.23899999999999944,-0.3649999999999993,0.4362866030489582,0.01100000000000012,0.009999999999999787
13,jf,Male,22,Right,2,112,311,108.0,304.0,8.06225774829855,1,33.59413768494778,CTtask-13-2025-12-06.mat,400,400.21714430331684,0.0,0.0,6,24,2.789,7.765,2.7,7.6,2.8000000000000003,7.7749999999999995,-0.08899999999999997,-0.16500000000000004,0.18747266467407991,0.01100000000000012,0.009999999999999787
13,jf,Male,22,Right,2,112,311,104.00000000000001,294.0,18.78829422805593,1,19.39987558444591,CTtask-13-2025-12-06.mat,400,400.21714430331684,0.0,0.0,6,24,2.789,7.765,2.6,7.35,2.8000000000000003,7.7749999999999995,-0.18900000000000006,-0.41500000000000004,0.45601096478045355,0.01100000000000012,0.009999999999999787
13,jf,Male,22,Right,2,112,311,104.00000000000001,306.0,9.433981132056593,1,20.63809488143488,CTtask-13-2025-12-06.mat,400,400.21714430331684,0.0,0.0,6,24,2.789,7.765,2.6,7.65,2.8000000000000003,7.7749999999999995,-0.18900000000000006,-0.11499999999999932,0.22123742902140198,0.01100000000000012,0.009999999999999787
13,jf,Male,22,Right,3,257,341,241.96984976460067,331.47664043757044,17.793251345776948,1,21.781708976921436,CTtask-13-2025-12-06.mat,400,400.21714430331684,0.0,0.0,6,24,6.426,8.527,6.049246244115016,8.286916010939262,6.425,8.525,-0.37675375588498383,-0.24008398906073758,0.4467479315864354,-0.001000000000000334,-0.0019999999999988916
13,jf,Male,22,Right,3,257,341,242.00000000000003,336.0,15.81138830084187,1,22.6974026859516,CTtask-13-2025-12-06.mat,400,400.21714430331684,0.0,0.0,6,24,6.426,8.527,6.050000000000001,8.4,6.425,8.525,-0.37599999999999945,-0.1269999999999989,0.3968689960175767,-0.001000000000000334,-0.0019999999999988916
13,jf,Male,22,Right,3,257,341,244.00000000000003,336.0,13.928388277184093,1,23.450356886452937,CTtask-13-2025-12-06.mat,400,400.21714430331684,0.0,0.0,6,24,6.426,8.527,6.100000000000001,8.4,6.425,8.525,-0.32599999999999874,-0.1269999999999989,0.34986425939212323,-0.001000000000000334,-0.0019999999999988916
13,jf,Male,22,Right,3,257,341,244.00000000000003,334.0,14.764823060233375,1,45.72405418494782,CTtask-13-2025-12-06.mat,400,400.21714430331684,0.0,0.0,6,24,6.426,8.527,6.100000000000001,8.35,6.425,8.525,-0.32599999999999874,-0.1769999999999996,0.37095147930692907,-0.001000000000000334,-0.0019999999999988916
13,jf,Male,22,Right,4,353,269,356.0,252.0,17.26267650163207,1,22.41437678595139,CTtask-13-2025-12-06.mat,400,400.21714430331684,0.0,0.0,6,24,8.817,6.716,8.9,6.3,8.825,6.725,0.08300000000000018,-0.41600000000000037,0.4241992456381793,0.007999999999999119,0.008999999999999453
13,jf,Male,22,Right,4,353,269,362.0,258.0,14.212670403551895,1,32.43993508595122,CTtask-13-2025-12-06.mat,400,400.21714430331684,0.0,0.0,6,24,8.817,6.716,9.05,6.45,8.825,6.725,0.23300000000000054,-0.266,0.35361702447704674,0.007999999999999119,0.008999999999999453
13,jf,Male,22,Right,4,353,269,358.0,248.0,21.587033144922902,0,44.67457698444741,CTtask-13-2025-12-06.mat,400,400.21714430331684,0.0,0.0,6,24,8.817,6.716,8.95,6.2,8.825,6.725,0.13299999999999912,-0.516,0.5328648984498789,0.007999999999999119,0.008999999999999453
13,jf,Male,22,Right,4,353,269,356.0,254.0,15.297058540778355,1,23.76690168595087,CTtask-13-2025-12-06.mat,400,400.21714430331684,0.0,0.0,6,24,8.817,6.716,8.9,6.35,8.825,6.725,0.08300000000000018,-0.36600000000000055,0.3752932186970615,0.007999999999999119,0.008999999999999453
13,jf,Male,22,Right,5,196,81,196.0,66.0,15.0,1,13.38956277541547,CTtask-13-2025-12-06.mat,400,400.21714430331684,0.0,0.0,6,24,4.894,2.02,4.9,1.6500000000000001,4.9,2.0250000000000004,0.006000000000000227,-0.3699999999999999,0.3700486454508379,0.006000000000000227,0.0050000000000003375
13,jf,Male,22,Right,5,196,81,202.0,64.0,18.027756377319946,1,12.336410585450722,CTtask-13-2025-12-06.mat,400,400.21714430331684,0.0,0.0,6,24,4.894,2.02,5.05,1.6,4.9,2.0250000000000004,0.1559999999999997,-0.41999999999999993,0.4480357128622671,0.006000000000000227,0.0050000000000003375
13,jf,Male,22,Right,5,196,81,200.0,62.0,19.4164878389476,1,11.31221458595246,CTtask-13-2025-12-06.mat,400,400.21714430331684,0.0,0.0,6,24,4.894,2.02,5.0,1.55,4.9,2.0250000000000004,0.10599999999999987,-0.47,0.4818049397837261,0.006000000000000227,0.0050000000000003375
13,jf,Male,22,Right,5,196,81,194.0,60.0,21.095023109728988,0,13.92029318645109,CTtask-13-2025-12-06.mat,400,400.21714430331684,0.0,0.0,6,24,4.894,2.02,4.85,1.5,4.9,2.0250000000000004,-0.04400000000000048,-0.52,0.5218582182930533,0.006000000000000227,0.0050000000000003375
13,jf,Male,22,Right,6,306,127,300.0,104.0,23.769728648009426,0,19.387250084946572,CTtask-13-2025-12-06.mat,400,400.21714430331684,0.0,0.0,6,24,7.659,3.185,7.5,2.6,7.65,3.175,-0.1589999999999998,-0.585,0.6062227313455013,-0.008999999999999453,-0.010000000000000231
13,jf,Male,22,Right,6,306,127,306.0,104.0,23.0,0,18.634085686453545,CTtask-13-2025-12-06.mat,400,400.21714430331684,0.0,0.0,6,24,7.659,3.185,7.65,2.6,7.65,3.175,-0.008999999999999453,-0.585,0.5850692266732203,-0.008999999999999453,-0.010000000000000231
13,jf,Male,22,Right,6,306,127,302.0,106.0,21.37755832643195,0,18.691288685951804,CTtask-13-2025-12-06.mat,400,400.21714430331684,0.0,0.0,6,24,7.659,3.185,7.55,2.6500000000000004,7.65,3.175,-0.10899999999999999,-0.5349999999999997,0.545990842414046,-0.008999999999999453,-0.010000000000000231
13,jf,Male,22,Right,6,306,127,308.0,106.0,21.095023109728988,0,19.539652785952057,CTtask-13-2025-12-06.mat,400,400.21714430331684,0.0,0.0,6,24,7.659,3.185,7.7,2.6500000000000004,7.65,3.175,0.04100000000000037,-0.5349999999999997,0.536568728123434,-0.008999999999999453,-0.010000000000000231
14,wrn,Female,24,Right,1,76,150,72.0,150.0,4.0,1,13.191399200000888,CTtask-14-2026-04-12.mat,313,313.0230152456045,0.0,0.0,6,24,2.416,4.788,2.300319488817891,4.7923322683706076,2.428115015974441,4.7923322683706076,-0.11568051118210887,0.004332268370607295,0.11576160510544495,0.012115015974440979,0.004332268370607295
14,wrn,Female,24,Right,1,76,150,78.0,150.0,2.0,1,10.561036300001433,CTtask-14-2026-04-12.mat,313,313.0230152456045,0.0,0.0,6,24,2.416,4.788,2.4920127795527156,4.7923322683706076,2.428115015974441,4.7923322683706076,0.07601277955271568,0.004332268370607295,0.07613613599707247,0.012115015974440979,0.004332268370607295
14,wrn,Female,24,Right,1,76,150,78.0,152.0,2.8284271247461903,1,10.223560099999304,CTtask-14-2026-04-12.mat,313,313.0230152456045,0.0,0.0,6,24,2.416,4.788,2.4920127795527156,4.856230031948882,2.428115015974441,4.7923322683706076,0.07601277955271568,0.06823003194888155,0.10214342815411645,0.012115015974440979,0.004332268370607295
14,wrn,Female,24,Right,1,76,150,76.0,148.0,2.0,1,12.263128999999026,CTtask-14-2026-04-12.mat,313,313.0230152456045,0.0,0.0,6,24,2.416,4.788,2.428115015974441,4.728434504792332,2.428115015974441,4.7923322683706076,0.012115015974440979,-0.05956549520766785,0.06078504611658744,0.012115015974440979,0.004332268370607295
14,wrn,Female,24,Right,2,87,243,88.0,232.0,11.045361017187261,1,16.27461089999997,CTtask-14-2026-04-12.mat,313,313.0230152456045,0.0,0.0,6,24,2.789,7.765,2.8115015974440896,7.412140575079872,2.779552715654952,7.763578274760383,0.022501597444089416,-0.352859424920128,0.3535761525364788,-0.009447284345048157,-0.0014217252396164781
14,wrn,Female,24,Right,2,87,243,84.0,228.0,15.297058540778355,1,12.098065499998484,CTtask-14-2026-04-12.mat,313,313.0230152456045,0.0,0.0,6,24,2.789,7.765,2.6837060702875397,7.284345047923323,2.779552715654952,7.763578274760383,-0.10529392971246043,-0.4806549520766765,0.49205283719345094,-0.009447284345048157,-0.0014217252396164781
14,wrn,Female,24,Right,2,87,243,90.0,224.0,19.235384061671343,0,24.085276699999667,CTtask-14-2026-04-12.mat,313,313.0230152456045,0.0,0.0,6,24,2.789,7.765,2.8753993610223643,7.156549520766773,2.779552715654952,7.763578274760383,0.08639936102236412,-0.6084504792332268,0.6145541760204841,-0.009447284345048157,-0.0014217252396164781
14,wrn,Female,24,Right,2,87,243,92.0,222.0,21.587033144922902,0,9.52278859999933,CTtask-14-2026-04-12.mat,313,313.0230152456045,0.0,0.0,6,24,2.789,7.765,2.939297124600639,7.092651757188499,2.779552715654952,7.763578274760383,0.15029712460063882,-0.6723482428115011,0.6889422220149765,-0.009447284345048157,-0.0014217252396164781
14,wrn,Female,24,Right,3,201,267,218.0,268.0,17.029386365926403,0,11.804427799997939,CTtask-14-2026-04-12.mat,313,313.0230152456045,0.0,0.0,6,24,6.426,8.527,6.964856230031949,8.562300319488818,6.421725239616613,8.53035143769968,0.538856230031949,0.03530031948881884,0.540011249142328,-0.004274760383387033,0.00335143769968127
14,wrn,Female,24,Right,3,201,267,212.0,268.0,11.045361017187261,1,11.4429283999998,CTtask-14-2026-04-12.mat,313,313.0230152456045,0.0,0.0,6,24,6.426,8.527,6.773162939297125,8.562300319488818,6.421725239616613,8.53035143769968,0.3471629392971245,0.03530031948881884,0.3489530326239215,-0.004274760383387033,0.00335143769968127
14,wrn,Female,24,Right,3,201,267,220.0,272.0,19.6468827043885,0,14.146303000001353,CTtask-14-2026-04-12.mat,313,313.0230152456045,0.0,0.0,6,24,6.426,8.527,7.0287539936102235,8.690095846645367,6.421725239616613,8.53035143769968,0.6027539936102233,0.16309584664536736,0.6244298455439509,-0.004274760383387033,0.00335143769968127
14,wrn,Female,24,Right,3,201,267,218.0,268.0,17.029386365926403,0,11.165813499999786,CTtask-14-2026-04-12.mat,313,313.0230152456045,0.0,0.0,6,24,6.426,8.527,6.964856230031949,8.562300319488818,6.421725239616613,8.53035143769968,0.538856230031949,0.03530031948881884,0.540011249142328,-0.004274760383387033,0.00335143769968127
14,wrn,Female,24,Right,4,276,210,284.0,212.0,8.246211251235321,1,28.61591580000095,CTtask-14-2026-04-12.mat,313,313.0230152456045,0.0,0.0,6,24,8.817,6.716,9.073482428115016,6.773162939297125,8.817891373801917,6.70926517571885,0.25648242811501554,0.05716293929712446,0.26277526055711725,0.0008913738019167283,-0.006734824281149798
14,wrn,Female,24,Right,4,276,210,280.0,116.00000000000001,94.0850678907126,0,8.430745099998603,CTtask-14-2026-04-12.mat,313,313.0230152456045,0.0,0.0,6,24,8.817,6.716,8.945686900958465,3.7060702875399363,8.817891373801917,6.70926517571885,0.12868690095846524,-3.009929712460064,3.0126794041896026,0.0008913738019167283,-0.006734824281149798
14,wrn,Female,24,Right,4,276,210,282.0,224.0,15.231546211727817,1,18.69517529999939,CTtask-14-2026-04-12.mat,313,313.0230152456045,0.0,0.0,6,24,8.817,6.716,9.009584664536742,7.156549520766773,8.817891373801917,6.70926517571885,0.19258466453674217,0.4405495207667727,0.4808042567017919,0.0008913738019167283,-0.006734824281149798
14,wrn,Female,24,Right,4,276,210,280.0,214.0,5.656854249492381,1,18.09927669999888,CTtask-14-2026-04-12.mat,313,313.0230152456045,0.0,0.0,6,24,8.817,6.716,8.945686900958465,6.8370607028754,8.817891373801917,6.70926517571885,0.12868690095846524,0.1210607028753996,0.17668053729536717,0.0008913738019167283,-0.006734824281149798
14,wrn,Female,24,Right,5,153,63,152.0,58.00000000000001,5.099019513592778,1,10.676462700001139,CTtask-14-2026-04-12.mat,313,313.0230152456045,0.0,0.0,6,24,4.894,2.02,4.856230031948882,1.8530351437699681,4.888178913738019,2.012779552715655,-0.03776996805111832,-0.16696485623003188,0.17118362568451959,-0.005821086261980746,-0.0072204472843449
14,wrn,Female,24,Right,5,153,63,156.0,60.000000000000014,4.242640687119275,1,11.223090799998317,CTtask-14-2026-04-12.mat,313,313.0230152456045,0.0,0.0,6,24,4.894,2.02,4.984025559105431,1.9169329073482433,4.888178913738019,2.012779552715655,0.09002555910543109,-0.10306709265175673,0.1368481891730076,-0.005821086261980746,-0.0072204472843449
14,wrn,Female,24,Right,5,153,63,158.0,62.000000000000014,5.099019513592782,1,14.633338100000401,CTtask-14-2026-04-12.mat,313,313.0230152456045,0.0,0.0,6,24,4.894,2.02,5.047923322683706,1.980830670926518,4.888178913738019,2.012779552715655,0.15392332268370623,-0.03916932907348203,0.15882891930016738,-0.005821086261980746,-0.0072204472843449
14,wrn,Female,24,Right,5,153,63,158.0,56.000000000000014,8.602325267042616,1,10.723228899998503,CTtask-14-2026-04-12.mat,313,313.0230152456045,0.0,0.0,6,24,4.894,2.02,5.047923322683706,1.7891373801916939,4.888178913738019,2.012779552715655,0.15392332268370623,-0.23086261980830614,0.2774706083367153,-0.005821086261980746,-0.0072204472843449
14,wrn,Female,24,Right,6,240,100,238.0,106.0,6.324555320336759,1,11.466427100000146,CTtask-14-2026-04-12.mat,313,313.0230152456045,0.0,0.0,6,24,7.659,3.185,7.603833865814696,3.3865814696485623,7.667731629392971,3.1948881789137378,-0.055166134185303584,0.20158146964856227,0.2089937589178805,0.008731629392971563,0.009888178913737722
14,wrn,Female,24,Right,6,240,100,242.0,106.00000000000001,6.324555320336772,1,8.408720499999617,CTtask-14-2026-04-12.mat,313,313.0230152456045,0.0,0.0,6,24,7.659,3.185,7.7316293929712465,3.386581469648563,7.667731629392971,3.1948881789137378,0.07262939297124671,0.20158146964856316,0.21426646407930097,0.008731629392971563,0.009888178913737722
14,wrn,Female,24,Right,6,240,100,236.0,106.0,7.211102550927978,1,13.532859500002814,CTtask-14-2026-04-12.mat,313,313.0230152456045,0.0,0.0,6,24,7.659,3.185,7.539936102236422,3.3865814696485623,7.667731629392971,3.1948881789137378,-0.11906389776357784,0.20158146964856227,0.23411813397584125,0.008731629392971563,0.009888178913737722
14,wrn,Female,24,Right,6,240,100,234.0,100.00000000000001,6.0,1,12.96903839999868,CTtask-14-2026-04-12.mat,313,313.0230152456045,0.0,0.0,6,24,7.659,3.185,7.476038338658148,3.1948881789137387,7.667731629392971,3.1948881789137378,-0.1829616613418521,0.00988817891373861,0.18322867025441375,0.008731629392971563,0.009888178913737722
15,xhty,Male,21,Right,1,97,192,64.00000000000001,198.0,33.54101966249683,0,10.999585699999443,CTtask-15-2025-12-06.mat,400,400.21714430331684,0.0,0.0,6,24,2.416,4.788,1.6000000000000003,4.95,2.425,4.8,-0.8159999999999996,0.16199999999999992,0.8319254774317224,0.008999999999999897,0.011999999999999567
15,xhty,Male,21,Right,1,97,192,69.22373461725223,187.1320978446955,28.199599110740035,0,14.153483699999924,CTtask-15-2025-12-06.mat,400,400.21714430331684,0.0,0.0,6,24,2.416,4.788,1.7305933654313057,4.678302446117387,2.425,4.8,-0.6854066345686942,-0.10969755388261326,0.6941295326080086,0.008999999999999897,0.011999999999999567
15,xhty,Male,21,Right,1,97,192,69.98629534754575,198.52335956242942,27.79018637992138,0,12.658934599999156,CTtask-15-2025-12-06.mat,400,400.21714430331684,0.0,0.0,6,24,2.416,4.788,1.7496573836886435,4.963083989060736,2.425,4.8,-0.6663426163113564,0.1750839890607354,0.6889607285891434,0.008999999999999897,0.011999999999999567
15,xhty,Male,21,Right,1,97,192,72.00000000000001,190.0,25.079872407968892,0,12.220055200000388,CTtask-15-2025-12-06.mat,400,400.21714430331684,0.0,0.0,6,24,2.416,4.788,1.8000000000000005,4.75,2.425,4.8,-0.6159999999999994,-0.038000000000000256,0.6171709649683783,0.008999999999999897,0.011999999999999567
15,xhty,Male,21,Right,2,112,311,53.9065078803055,302.69404149180224,58.68426342215526,0,27.53478458718564,CTtask-15-2025-12-06.mat,400,400.21714430331684,0.0,0.0,6,24,2.789,7.765,1.3476626970076375,7.567351037295056,2.8000000000000003,7.7749999999999995,-1.4413373029923626,-0.19764896270494337,1.454825877366648,0.01100000000000012,0.009999999999999787
15,xhty,Male,21,Right,2,112,311,80.00000000000003,314.0,32.140317359976365,0,16.22789069999999,CTtask-15-2025-12-06.mat,400,400.21714430331684,0.0,0.0,6,24,2.789,7.765,2.000000000000001,7.8500000000000005,2.8000000000000003,7.7749999999999995,-0.7889999999999993,0.08500000000000085,0.7935653722284,0.01100000000000012,0.009999999999999787
15,xhty,Male,21,Right,2,112,311,88.00000000000001,302.0,25.63201123595258,0,16.108039400000052,CTtask-15-2025-12-06.mat,400,400.21714430331684,0.0,0.0,6,24,2.789,7.765,2.2,7.55,2.8000000000000003,7.7749999999999995,-0.589,-0.21499999999999986,0.6270135564722663,0.01100000000000012,0.009999999999999787
15,xhty,Male,21,Right,2,112,311,84.4421367824734,300.6011329450685,29.454579629355518,0,15.106730599999537,CTtask-15-2025-12-06.mat,400,400.21714430331684,0.0,0.0,6,24,2.789,7.765,2.111053419561835,7.515028323626712,2.8000000000000003,7.7749999999999995,-0.677946580438165,-0.24997167637328754,0.7225630802336035,0.01100000000000012,0.009999999999999787
15,xhty,Male,21,Right,3,257,341,295.808412711988,227.34233345684873,120.10061640665363,0,21.567773845211377,CTtask-15-2025-12-06.mat,400,400.21714430331684,0.0,0.0,6,24,6.426,8.527,7.395210317799701,5.6835583364212185,6.425,8.525,0.9692103177997007,-2.8434416635787807,3.0040854072920533,-0.001000000000000334,-0.0019999999999988916
15,xhty,Male,21,Right,3,257,341,198.02249658666003,304.32451675879014,69.45096817069431,0,18.802971200000684,CTtask-15-2025-12-06.mat,400,400.21714430331684,0.0,0.0,6,24,6.426,8.527,4.950562414666501,7.608112918969754,6.425,8.525,-1.4754375853334993,-0.9188870810302454,1.7381799492282242,-0.001000000000000334,-0.0019999999999988916
15,xhty,Male,21,Right,3,257,341,205.6437466504884,325.72067211249356,53.58099120763961,0,19.049798400000327,CTtask-15-2025-12-06.mat,400,400.21714430331684,0.0,0.0,6,24,6.426,8.527,5.1410936662622095,8.14301680281234,6.425,8.525,-1.2849063337377906,-0.38398319718765883,1.341054578382978,-0.001000000000000334,-0.0019999999999988916
15,xhty,Male,21,Right,3,257,341,111.98903627803661,304.41868764994365,149.5539100552873,0,16.842587499999354,CTtask-15-2025-12-06.mat,400,400.21714430331684,0.0,0.0,6,24,6.426,8.527,2.799725906950915,7.610467191248591,6.425,8.525,-3.6262740930490853,-0.9165328087514082,3.7403069643328357,-0.001000000000000334,-0.0019999999999988916
15,xhty,Male,21,Right,4,353,269,356.0,292.0,23.194827009486403,0,24.066633817818,CTtask-15-2025-12-06.mat,400,400.21714430331684,0.0,0.0,6,24,8.817,6.716,8.9,7.3,8.825,6.725,0.08300000000000018,0.5839999999999996,0.5898686294421832,0.007999999999999119,0.008999999999999453
15,xhty,Male,21,Right,4,353,269,355.8057168371051,255.60086056290146,13.689740122618264,1,23.962744399999792,CTtask-15-2025-12-06.mat,400,400.21714430331684,0.0,0.0,6,24,8.817,6.716,8.895142920927627,6.3900215140725365,8.825,6.725,0.0781429209276272,-0.3259784859274637,0.3352137965219556,0.007999999999999119,0.008999999999999453
15,xhty,Male,21,Right,4,353,269,340.3137288390212,269.9863028602457,12.724553795792238,1,21.69050629999947,CTtask-15-2025-12-06.mat,400,400.21714430331684,0.0,0.0,6,24,8.817,6.716,8.50784322097553,6.749657571506143,8.825,6.725,-0.3091567790244696,0.03365757150614268,0.3109835142519227,0.007999999999999119,0.008999999999999453
15,xhty,Male,21,Right,4,353,269,336.0,276.0,18.384776310850235,1,21.890247799999997,CTtask-15-2025-12-06.mat,400,400.21714430331684,0.0,0.0,6,24,8.817,6.716,8.4,6.8999999999999995,8.825,6.725,-0.4169999999999998,0.18399999999999928,0.45579052206029863,0.007999999999999119,0.008999999999999453
15,xhty,Male,21,Right,5,196,81,214.0,54.0,32.449961479175904,0,14.016307599999891,CTtask-15-2025-12-06.mat,400,400.21714430331684,0.0,0.0,6,24,4.894,2.02,5.3500000000000005,1.35,4.9,2.0250000000000004,0.4560000000000004,-0.6699999999999999,0.8104541936469947,0.006000000000000227,0.0050000000000003375
15,xhty,Male,21,Right,5,196,81,210.0,70.0,17.804493814764857,1,13.155600199999753,CTtask-15-2025-12-06.mat,400,400.21714430331684,0.0,0.0,6,24,4.894,2.02,5.25,1.75,4.9,2.0250000000000004,0.35599999999999987,-0.27,0.44680644579056816,0.006000000000000227,0.0050000000000003375
15,xhty,Male,21,Right,5,196,81,214.0,70.0,21.095023109728988,0,11.701975500000117,CTtask-15-2025-12-06.mat,400,400.21714430331684,0.0,0.0,6,24,4.894,2.02,5.3500000000000005,1.75,4.9,2.0250000000000004,0.4560000000000004,-0.27,0.5299396192020374,0.006000000000000227,0.0050000000000003375
15,xhty,Male,21,Right,5,196,81,220.0,82.0,24.020824298928627,0,15.92106799999965,CTtask-15-2025-12-06.mat,400,400.21714430331684,0.0,0.0,6,24,4.894,2.02,5.5,2.05,4.9,2.0250000000000004,0.6059999999999999,0.029999999999999805,0.6067421198499408,0.006000000000000227,0.0050000000000003375
15,xhty,Male,21,Right,6,306,127,275.90141663413704,95.37196931145333,43.66070368039724,0,16.28014170000006,CTtask-15-2025-12-06.mat,400,400.21714430331684,0.0,0.0,6,24,7.659,3.185,6.897535415853426,2.3842992327863333,7.65,3.175,-0.7614645841465739,-0.8007007672136668,1.1049660770928984,-0.008999999999999453,-0.010000000000000231
15,xhty,Male,21,Right,6,306,127,301.16653185309883,88.35108399713853,38.94998231736889,0,15.778380300000208,CTtask-15-2025-12-06.mat,400,400.21714430331684,0.0,0.0,6,24,7.659,3.185,7.5291632963274715,2.2087770999284633,7.65,3.175,-0.1298367036725283,-0.9762229000715368,0.9848191307263632,-0.008999999999999453,-0.010000000000000231
15,xhty,Male,21,Right,6,306,127,308.0909672600316,110.52061863193856,16.611506685323118,1,19.509705100000247,CTtask-15-2025-12-06.mat,400,400.21714430331684,0.0,0.0,6,24,7.659,3.185,7.7022741815007905,2.763015465798464,7.65,3.175,0.043274181500790654,-0.42198453420153603,0.4241975976945776,-0.008999999999999453,-0.010000000000000231
15,xhty,Male,21,Right,6,306,127,302.0690398161048,119.47389950707972,8.490856057954593,1,16.74178860000029,CTtask-15-2025-12-06.mat,400,400.21714430331684,0.0,0.0,6,24,7.659,3.185,7.55172599540262,2.986847487676993,7.65,3.175,-0.10727400459737968,-0.198152512323007,0.22532671879357336,-0.008999999999999453,-0.010000000000000231
16,lhy,Male,20,Left,1,76,150,60.0,154.0,16.492422502470642,0,11.68222969999988,CTtask-16-2026-04-12.mat,313,313.0230152456045,0.0,0.0,6,24,2.416,4.788,1.9169329073482428,4.920127795527157,2.428115015974441,4.7923322683706076,-0.4990670926517571,0.1321277955271567,0.5162612878366376,0.012115015974440979,0.004332268370607295
16,lhy,Male,20,Left,1,76,150,62.0,154.0,14.560219778561036,1,13.165362099999584,CTtask-16-2026-04-12.mat,313,313.0230152456045,0.0,0.0,6,24,2.416,4.788,1.9808306709265175,4.920127795527157,2.428115015974441,4.7923322683706076,-0.4351693290734824,0.1321277955271567,0.45478577299331924,0.012115015974440979,0.004332268370607295
16,lhy,Male,20,Left,1,76,150,62.0,156.0,15.231546211727817,1,14.453771999999844,CTtask-16-2026-04-12.mat,313,313.0230152456045,0.0,0.0,6,24,2.416,4.788,1.9808306709265175,4.984025559105431,2.428115015974441,4.7923322683706076,-0.4351693290734824,0.19602555910543096,0.477282269510257,0.012115015974440979,0.004332268370607295
16,lhy,Male,20,Left,1,76,150,64.0,154.0,12.649110640673518,1,9.396807699999954,CTtask-16-2026-04-12.mat,313,313.0230152456045,0.0,0.0,6,24,2.416,4.788,2.0447284345047922,4.920127795527157,2.428115015974441,4.7923322683706076,-0.3712715654952077,0.1321277955271567,0.3940816282144201,0.012115015974440979,0.004332268370607295
16,lhy,Male,20,Left,2,87,243,92.0,238.0,7.0710678118654755,1,11.212625999999545,CTtask-16-2026-04-12.mat,313,313.0230152456045,0.0,0.0,6,24,2.789,7.765,2.939297124600639,7.603833865814696,2.779552715654952,7.763578274760383,0.15029712460063882,-0.16116613418530346,0.22037184137601426,-0.009447284345048157,-0.0014217252396164781
16,lhy,Male,20,Left,2,87,243,88.0,244.0,1.4142135623730951,1,10.543351500000426,CTtask-16-2026-04-12.mat,313,313.0230152456045,0.0,0.0,6,24,2.789,7.765,2.8115015974440896,7.795527156549521,2.779552715654952,7.763578274760383,0.022501597444089416,0.030527156549521095,0.037923992070123896,-0.009447284345048157,-0.0014217252396164781
16,lhy,Male,20,Left,2,87,243,94.0,238.0,8.602325267042627,1,13.531923800000186,CTtask-16-2026-04-12.mat,313,313.0230152456045,0.0,0.0,6,24,2.789,7.765,3.003194888178914,7.603833865814696,2.779552715654952,7.763578274760383,0.21419488817891397,-0.16116613418530346,0.2680559138131683,-0.009447284345048157,-0.0014217252396164781
16,lhy,Male,20,Left,2,87,243,96.0,238.0,10.295630140987,1,10.46882690000075,CTtask-16-2026-04-12.mat,313,313.0230152456045,0.0,0.0,6,24,2.789,7.765,3.0670926517571884,7.603833865814696,2.779552715654952,7.763578274760383,0.2780926517571882,-0.16116613418530346,0.3214188012073656,-0.009447284345048157,-0.0014217252396164781
16,lhy,Male,20,Left,3,201,267,210.0,278.0,14.212670403551895,1,11.238688300000831,CTtask-16-2026-04-12.mat,313,313.0230152456045,0.0,0.0,6,24,6.426,8.527,6.70926517571885,8.881789137380192,6.421725239616613,8.53035143769968,0.28326517571885024,0.3547891373801928,0.4539983389595301,-0.004274760383387033,0.00335143769968127
16,lhy,Male,20,Left,3,201,267,200.0,282.0,15.033296378372908,1,13.745981299999585,CTtask-16-2026-04-12.mat,313,313.0230152456045,0.0,0.0,6,24,6.426,8.527,6.3897763578274756,9.009584664536742,6.421725239616613,8.53035143769968,-0.036223642172524606,0.4825846645367431,0.48394225967390364,-0.004274760383387033,0.00335143769968127
16,lhy,Male,20,Left,3,201,267,204.0,278.0,11.40175425099138,1,13.310870999999679,CTtask-16-2026-04-12.mat,313,313.0230152456045,0.0,0.0,6,24,6.426,8.527,6.517571884984026,8.881789137380192,6.421725239616613,8.53035143769968,0.09157188498402569,0.3547891373801928,0.36641607787119407,-0.004274760383387033,0.00335143769968127
16,lhy,Male,20,Left,3,201,267,212.0,280.0,17.029386365926403,0,21.938736799999788,CTtask-16-2026-04-12.mat,313,313.0230152456045,0.0,0.0,6,24,6.426,8.527,6.773162939297125,8.945686900958465,6.421725239616613,8.53035143769968,0.3471629392971245,0.41868690095846617,0.5438941325806185,-0.004274760383387033,0.00335143769968127
16,lhy,Male,20,Left,4,276,210,272.0,210.0,4.0,1,15.168822300000102,CTtask-16-2026-04-12.mat,313,313.0230152456045,0.0,0.0,6,24,8.817,6.716,8.690095846645367,6.70926517571885,8.817891373801917,6.70926517571885,-0.12690415335463356,-0.006734824281149798,0.1270827368164312,0.0008913738019167283,-0.006734824281149798
16,lhy,Male,20,Left,4,276,210,280.0,192.0,18.439088914585774,0,18.499048000000585,CTtask-16-2026-04-12.mat,313,313.0230152456045,0.0,0.0,6,24,8.817,6.716,8.945686900958465,6.134185303514377,8.817891373801917,6.70926517571885,0.12868690095846524,-0.5818146964856235,0.5958763793984051,0.0008913738019167283,-0.006734824281149798
16,lhy,Male,20,Left,4,276,210,282.0,204.0,8.48528137423857,1,14.738366199999291,CTtask-16-2026-04-12.mat,313,313.0230152456045,0.0,0.0,6,24,8.817,6.716,9.009584664536742,6.517571884984026,8.817891373801917,6.70926517571885,0.19258466453674217,-0.19842811501597435,0.2765186609318117,0.0008913738019167283,-0.006734824281149798
16,lhy,Male,20,Left,4,276,210,284.0,206.0,8.94427190999916,1,14.24780809999993,CTtask-16-2026-04-12.mat,313,313.0230152456045,0.0,0.0,6,24,8.817,6.716,9.073482428115016,6.5814696485623,8.817891373801917,6.70926517571885,0.25648242811501554,-0.1345303514377001,0.2896232922085605,0.0008913738019167283,-0.006734824281149798
16,lhy,Male,20,Left,5,153,63,154.0,64.0,1.4142135623730951,1,16.246530500000517,CTtask-16-2026-04-12.mat,313,313.0230152456045,0.0,0.0,6,24,4.894,2.02,4.920127795527157,2.0447284345047922,4.888178913738019,2.012779552715655,0.026127795527156827,0.02472843450479223,0.03597439606396076,-0.005821086261980746,-0.0072204472843449
16,lhy,Male,20,Left,5,153,63,152.0,68.0,5.0990195135927845,1,12.673174200000176,CTtask-16-2026-04-12.mat,313,313.0230152456045,0.0,0.0,6,24,4.894,2.02,4.856230031948882,2.1725239616613417,4.888178913738019,2.012779552715655,-0.03776996805111832,0.15252396166134163,0.15713093065164768,-0.005821086261980746,-0.0072204472843449
16,lhy,Male,20,Left,5,153,63,152.0,62.00000000000001,1.41421356237309,1,9.96101869999984,CTtask-16-2026-04-12.mat,313,313.0230152456045,0.0,0.0,6,24,4.894,2.02,4.856230031948882,1.9808306709265178,4.888178913738019,2.012779552715655,-0.03776996805111832,-0.03916932907348225,0.054413296414104896,-0.005821086261980746,-0.0072204472843449
16,lhy,Male,20,Left,5,153,63,158.0,52.0,12.083045973594572,1,14.561857900000177,CTtask-16-2026-04-12.mat,313,313.0230152456045,0.0,0.0,6,24,4.894,2.02,5.047923322683706,1.6613418530351436,4.888178913738019,2.012779552715655,0.15392332268370623,-0.35865814696485643,0.39029226952407975,-0.005821086261980746,-0.0072204472843449
16,lhy,Male,20,Left,6,240,100,244.0,90.00000000000001,10.770329614268995,1,14.565348900000572,CTtask-16-2026-04-12.mat,313,313.0230152456045,0.0,0.0,6,24,7.659,3.185,7.795527156549521,2.8753993610223647,7.667731629392971,3.1948881789137378,0.13652715654952097,-0.30960063897763535,0.338366990309128,0.008731629392971563,0.009888178913737722
16,lhy,Male,20,Left,6,240,100,238.0,94.00000000000001,6.324555320336745,1,19.712630699999863,CTtask-16-2026-04-12.mat,313,313.0230152456045,0.0,0.0,6,24,7.659,3.185,7.603833865814696,3.0031948881789146,7.667731629392971,3.1948881789137378,-0.055166134185303584,-0.1818051118210855,0.18999052883032966,0.008731629392971563,0.009888178913737722
16,lhy,Male,20,Left,6,240,100,236.0,92.00000000000001,8.944271909999147,1,14.463090000000193,CTtask-16-2026-04-12.mat,313,313.0230152456045,0.0,0.0,6,24,7.659,3.185,7.539936102236422,2.9392971246006394,7.667731629392971,3.1948881789137378,-0.11906389776357784,-0.24570287539936064,0.2730313438603148,0.008731629392971563,0.009888178913737722
16,lhy,Male,20,Left,6,240,100,242.0,90.00000000000001,10.198039027185557,1,18.634262099999432,CTtask-16-2026-04-12.mat,313,313.0230152456045,0.0,0.0,6,24,7.659,3.185,7.7316293929712465,2.8753993610223647,7.667731629392971,3.1948881789137378,0.07262939297124671,-0.30960063897763535,0.31800563576567614,0.008731629392971563,0.009888178913737722
17,bys,Female,21,Right,1,97,192,83.99725906950916,187.89532808751412,13.635233889252229,1,28.32924360915058,CTtask-17-2025-12-06.mat,400,400.21714430331684,0.0,0.0,6,24,2.416,4.788,2.099931476737729,4.697383202187853,2.425,4.8,-0.31606852326227086,-0.09061679781214682,0.328801939536433,0.008999999999999897,0.011999999999999567
17,bys,Female,21,Right,1,97,192,96.00000000000001,180.0,12.041594578792294,1,27.881048703169654,CTtask-17-2025-12-06.mat,400,400.21714430331684,0.0,0.0,6,24,2.416,4.788,2.4000000000000004,4.5,2.425,4.8,-0.01599999999999957,-0.28800000000000026,0.2884441020371194,0.008999999999999897,0.011999999999999567
17,bys,Female,21,Right,1,97,192,78.00000000000001,180.0,22.47220505424422,0,25.159041717288346,CTtask-17-2025-12-06.mat,400,400.21714430331684,0.0,0.0,6,24,2.416,4.788,1.9500000000000004,4.5,2.425,4.8,-0.4659999999999995,-0.28800000000000026,0.5478138369920932,0.008999999999999897,0.011999999999999567
17,bys,Female,21,Right,1,97,192,80.00000000000001,178.0,22.02271554554523,0,19.012539636252768,CTtask-17-2025-12-06.mat,400,400.21714430331684,0.0,0.0,6,24,2.416,4.788,2.0000000000000004,4.45,2.425,4.8,-0.4159999999999995,-0.3380000000000001,0.5360037313302956,0.008999999999999897,0.011999999999999567
17,bys,Female,21,Right,2,112,311,118.00000000000001,302.0,10.816653826391976,1,52.42784634096097,CTtask-17-2025-12-06.mat,400,400.21714430331684,0.0,0.0,6,24,2.789,7.765,2.95,7.55,2.8000000000000003,7.7749999999999995,0.16100000000000003,-0.21499999999999986,0.2686000744601534,0.01100000000000012,0.009999999999999787
17,bys,Female,21,Right,2,112,311,124.00000000000001,306.0,13.000000000000012,1,34.451975336247415,CTtask-17-2025-12-06.mat,400,400.21714430331684,0.0,0.0,6,24,2.789,7.765,3.1000000000000005,7.65,2.8000000000000003,7.7749999999999995,0.3110000000000004,-0.11499999999999932,0.3315810609790615,0.01100000000000012,0.009999999999999787
17,bys,Female,21,Right,2,112,311,130.0,298.0,22.20360331117452,0,29.058485940957326,CTtask-17-2025-12-06.mat,400,400.21714430331684,0.0,0.0,6,24,2.789,7.765,3.25,7.45,2.8000000000000003,7.7749999999999995,0.46099999999999985,-0.3149999999999995,0.5583421889844968,0.01100000000000012,0.009999999999999787
17,bys,Female,21,Right,2,112,311,132.0,300.0,22.825424421026653,0,24.037497759658436,CTtask-17-2025-12-06.mat,400,400.21714430331684,0.0,0.0,6,24,2.789,7.765,3.3000000000000003,7.5,2.8000000000000003,7.7749999999999995,0.5110000000000001,-0.2649999999999997,0.5756266150900251,0.01100000000000012,0.009999999999999787
17,bys,Female,21,Right,3,257,341,248.00000000000003,348.0,11.401754250991358,1,28.003844922128337,CTtask-17-2025-12-06.mat,400,400.21714430331684,0.0,0.0,6,24,6.426,8.527,6.200000000000001,8.7,6.425,8.525,-0.2259999999999991,0.17300000000000004,0.28461377338421207,-0.001000000000000334,-0.0019999999999988916
17,bys,Female,21,Right,3,257,341,256.0,332.0,9.055385138137417,1,24.941681831543974,CTtask-17-2025-12-06.mat,400,400.21714430331684,0.0,0.0,6,24,6.426,8.527,6.4,8.299999999999999,6.425,8.525,-0.0259999999999998,-0.2270000000000003,0.22848413511664248,-0.001000000000000334,-0.0019999999999988916
17,bys,Female,21,Right,3,257,341,264.0,332.0,11.40175425099138,1,29.49016153154298,CTtask-17-2025-12-06.mat,400,400.21714430331684,0.0,0.0,6,24,6.426,8.527,6.6000000000000005,8.299999999999999,6.425,8.525,0.17400000000000038,-0.2270000000000003,0.2860157338329489,-0.001000000000000334,-0.0019999999999988916
17,bys,Female,21,Right,3,257,341,260.0,340.0,3.1622776601683795,1,30.22852222212532,CTtask-17-2025-12-06.mat,400,400.21714430331684,0.0,0.0,6,24,6.426,8.527,6.5,8.5,6.425,8.525,0.07399999999999984,-0.026999999999999247,0.0787718223732315,-0.001000000000000334,-0.0019999999999988916
17,bys,Female,21,Right,4,353,269,354.0,260.0,9.055385138137417,1,34.208322009148105,CTtask-17-2025-12-06.mat,400,400.21714430331684,0.0,0.0,6,24,8.817,6.716,8.85,6.5,8.825,6.725,0.032999999999999474,-0.2160000000000002,0.21850629281556183,0.007999999999999119,0.008999999999999453
17,bys,Female,21,Right,4,353,269,368.0,272.0,15.297058540778355,1,31.548628836251737,CTtask-17-2025-12-06.mat,400,400.21714430331684,0.0,0.0,6,24,8.817,6.716,9.200000000000001,6.800000000000001,8.825,6.725,0.3830000000000009,0.08400000000000052,0.39210330271498706,0.007999999999999119,0.008999999999999453
17,bys,Female,21,Right,4,353,269,342.0,264.0,12.083045973594572,1,29.273779622126312,CTtask-17-2025-12-06.mat,400,400.21714430331684,0.0,0.0,6,24,8.817,6.716,8.55,6.6000000000000005,8.825,6.725,-0.26699999999999946,-0.11599999999999966,0.29110994486619596,0.007999999999999119,0.008999999999999453
17,bys,Female,21,Right,4,353,269,348.0,274.0,7.0710678118654755,1,27.93034105508559,CTtask-17-2025-12-06.mat,400,400.21714430331684,0.0,0.0,6,24,8.817,6.716,8.7,6.8500000000000005,8.825,6.725,-0.11700000000000088,0.13400000000000034,0.17789041570585049,0.007999999999999119,0.008999999999999453
17,bys,Female,21,Right,5,196,81,198.0,88.0,7.280109889280518,1,20.475845278484485,CTtask-17-2025-12-06.mat,400,400.21714430331684,0.0,0.0,6,24,4.894,2.02,4.95,2.2,4.9,2.0250000000000004,0.05600000000000005,0.18000000000000016,0.18850994668717103,0.006000000000000227,0.0050000000000003375
17,bys,Female,21,Right,5,196,81,192.0,76.0,6.4031242374328485,1,18.09944255037044,CTtask-17-2025-12-06.mat,400,400.21714430331684,0.0,0.0,6,24,4.894,2.02,4.8,1.9,4.9,2.0250000000000004,-0.0940000000000003,-0.1200000000000001,0.1524335920983301,0.006000000000000227,0.0050000000000003375
17,bys,Female,21,Right,5,196,81,194.0,88.0,7.280109889280518,1,19.856394769205508,CTtask-17-2025-12-06.mat,400,400.21714430331684,0.0,0.0,6,24,4.894,2.02,4.85,2.2,4.9,2.0250000000000004,-0.04400000000000048,0.18000000000000016,0.18529975715040778,0.006000000000000227,0.0050000000000003375
17,bys,Female,21,Right,5,196,81,196.0,78.0,3.0,1,17.51336295380679,CTtask-17-2025-12-06.mat,400,400.21714430331684,0.0,0.0,6,24,4.894,2.02,4.9,1.9500000000000002,4.9,2.0250000000000004,0.006000000000000227,-0.06999999999999984,0.07025667228100105,0.006000000000000227,0.0050000000000003375
17,bys,Female,21,Right,6,306,127,310.0,98.0,29.274562336608895,0,26.337618840956566,CTtask-17-2025-12-06.mat,400,400.21714430331684,0.0,0.0,6,24,7.659,3.185,7.75,2.45,7.65,3.175,0.09100000000000019,-0.7349999999999999,0.7406119091670076,-0.008999999999999453,-0.010000000000000231
17,bys,Female,21,Right,6,306,127,328.0,120.0,23.08679276123039,0,25.20980507391141,CTtask-17-2025-12-06.mat,400,400.21714430331684,0.0,0.0,6,24,7.659,3.185,8.2,3.0,7.65,3.175,0.5409999999999995,-0.18500000000000005,0.5717569413658214,-0.008999999999999453,-0.010000000000000231
17,bys,Female,21,Right,6,306,127,332.0,120.0,26.92582403567252,0,28.77182935978999,CTtask-17-2025-12-06.mat,400,400.21714430331684,0.0,0.0,6,24,7.659,3.185,8.299999999999999,3.0,7.65,3.175,0.6409999999999991,-0.18500000000000005,0.6671626488345993,-0.008999999999999453,-0.010000000000000231
17,bys,Female,21,Right,6,306,127,330.0,104.0,33.24154027718932,0,22.231262940960733,CTtask-17-2025-12-06.mat,400,400.21714430331684,0.0,0.0,6,24,7.659,3.185,8.25,2.6,7.65,3.175,0.5910000000000002,-0.585,0.831568397667925,-0.008999999999999453,-0.010000000000000231
18,wbx,Male,18,Right,1,76,150,74.0,158.0,8.246211251235321,1,15.149045899999692,CTtask-18-2026-04-12.mat,313,313.0230152456045,0.0,0.0,6,24,2.416,4.788,2.364217252396166,5.047923322683706,2.428115015974441,4.7923322683706076,-0.05178274760383372,0.2599233226837061,0.2650312936698992,0.012115015974440979,0.004332268370607295
18,wbx,Male,18,Right,1,76,150,84.0,158.0,11.313708498984761,1,12.597745799999757,CTtask-18-2026-04-12.mat,313,313.0230152456045,0.0,0.0,6,24,2.416,4.788,2.6837060702875397,5.047923322683706,2.428115015974441,4.7923322683706076,0.2677060702875398,0.2599233226837061,0.3731309069800238,0.012115015974440979,0.004332268370607295
18,wbx,Male,18,Right,1,76,150,76.0,156.0,6.0,1,7.212227500000154,CTtask-18-2026-04-12.mat,313,313.0230152456045,0.0,0.0,6,24,2.416,4.788,2.428115015974441,4.984025559105431,2.428115015974441,4.7923322683706076,0.012115015974440979,0.19602555910543096,0.19639957595335528,0.012115015974440979,0.004332268370607295
18,wbx,Male,18,Right,1,76,150,70.0,150.0,6.0,1,17.198131600000124,CTtask-18-2026-04-12.mat,313,313.0230152456045,0.0,0.0,6,24,2.416,4.788,2.2364217252396164,4.7923322683706076,2.428115015974441,4.7923322683706076,-0.17957827476038357,0.004332268370607295,0.17963052445269645,0.012115015974440979,0.004332268370607295
18,wbx,Male,18,Right,2,87,243,82.0,224.0,19.6468827043885,0,12.71749490000002,CTtask-18-2026-04-12.mat,313,313.0230152456045,0.0,0.0,6,24,2.789,7.765,2.6198083067092655,7.156549520766773,2.779552715654952,7.763578274760383,-0.1691916932907347,-0.6084504792332268,0.6315360755790039,-0.009447284345048157,-0.0014217252396164781
18,wbx,Male,18,Right,2,87,243,78.0,232.0,14.212670403551895,1,8.175194100000226,CTtask-18-2026-04-12.mat,313,313.0230152456045,0.0,0.0,6,24,2.789,7.765,2.4920127795527156,7.412140575079872,2.779552715654952,7.763578274760383,-0.29698722044728454,-0.352859424920128,0.4612062259596757,-0.009447284345048157,-0.0014217252396164781
18,wbx,Male,18,Right,2,87,243,84.0,238.0,5.830951894845301,1,9.596333600000435,CTtask-18-2026-04-12.mat,313,313.0230152456045,0.0,0.0,6,24,2.789,7.765,2.6837060702875397,7.603833865814696,2.779552715654952,7.763578274760383,-0.10529392971246043,-0.16116613418530346,0.19251320589125254,-0.009447284345048157,-0.0014217252396164781
18,wbx,Male,18,Right,2,87,243,84.0,244.0,3.1622776601683795,1,5.504470300000321,CTtask-18-2026-04-12.mat,313,313.0230152456045,0.0,0.0,6,24,2.789,7.765,2.6837060702875397,7.795527156549521,2.779552715654952,7.763578274760383,-0.10529392971246043,0.030527156549521095,0.10962991800275838,-0.009447284345048157,-0.0014217252396164781
18,wbx,Male,18,Right,3,201,267,190.0,266.0,11.045361017187261,1,6.796121400000629,CTtask-18-2026-04-12.mat,313,313.0230152456045,0.0,0.0,6,24,6.426,8.527,6.0702875399361025,8.498402555910543,6.421725239616613,8.53035143769968,-0.3557124600638977,-0.028597444089456303,0.35686015195473925,-0.004274760383387033,0.00335143769968127
18,wbx,Male,18,Right,3,201,267,192.0,266.0,9.055385138137417,1,9.97334520000004,CTtask-18-2026-04-12.mat,313,313.0230152456045,0.0,0.0,6,24,6.426,8.527,6.134185303514377,8.498402555910543,6.421725239616613,8.53035143769968,-0.2918146964856234,-0.028597444089456303,0.29321260357195783,-0.004274760383387033,0.00335143769968127
18,wbx,Male,18,Right,3,201,267,188.0,272.0,13.92838827718412,1,7.577189599998746,CTtask-18-2026-04-12.mat,313,313.0230152456045,0.0,0.0,6,24,6.426,8.527,6.006389776357828,8.690095846645367,6.421725239616613,8.53035143769968,-0.41961022364217193,0.16309584664536736,0.4501921756072652,-0.004274760383387033,0.00335143769968127
18,wbx,Male,18,Right,3,201,267,194.0,262.0,8.602325267042627,1,7.76383530000021,CTtask-18-2026-04-12.mat,313,313.0230152456045,0.0,0.0,6,24,6.426,8.527,6.198083067092651,8.370607028753994,6.421725239616613,8.53035143769968,-0.22791693290734916,-0.15639297124600482,0.27641434434747914,-0.004274760383387033,0.00335143769968127
18,wbx,Male,18,Right,4,276,210,256.0,202.0,21.540659228538015,0,20.54054780000115,CTtask-18-2026-04-12.mat,313,313.0230152456045,0.0,0.0,6,24,8.817,6.716,8.178913738019169,6.453674121405751,8.817891373801917,6.70926517571885,-0.6380862619808312,-0.2623258785942495,0.6899050255715745,0.0008913738019167283,-0.006734824281149798
18,wbx,Male,18,Right,4,276,210,268.0,206.0,8.94427190999916,1,7.618988899999749,CTtask-18-2026-04-12.mat,313,313.0230152456045,0.0,0.0,6,24,8.817,6.716,8.562300319488818,6.5814696485623,8.817891373801917,6.70926517571885,-0.2546996805111821,-0.1345303514377001,0.2880457302416568,0.0008913738019167283,-0.006734824281149798
18,wbx,Male,18,Right,4,276,210,266.0,202.0,12.806248474865697,1,7.082260299999689,CTtask-18-2026-04-12.mat,313,313.0230152456045,0.0,0.0,6,24,8.817,6.716,8.498402555910543,6.453674121405751,8.817891373801917,6.70926517571885,-0.3185974440894572,-0.2623258785942495,0.41269746541574465,0.0008913738019167283,-0.006734824281149798
18,wbx,Male,18,Right,4,276,210,268.0,194.0,17.88854381999832,0,8.072775300001013,CTtask-18-2026-04-12.mat,313,313.0230152456045,0.0,0.0,6,24,8.817,6.716,8.562300319488818,6.198083067092651,8.817891373801917,6.70926517571885,-0.2546996805111821,-0.5179169329073492,0.5771567175773439,0.0008913738019167283,-0.006734824281149798
